timestamp,acc_x_knee,acc_y_knee,acc_z_knee,gyro_x_knee,gyro_y_knee,gyro_z_knee
1027.34375,2.22552065433144,1.4391365467581183,9.456827337905919,0.0771374836016354,0.204647100269578,0.027353279456391662
1037.109375,2.237307386078966,1.4150909626341237,9.445024322182366,0.13774897046466605,0.032094762968737534,-0.060614098806261826
1046.875,2.2376709946493376,1.403913417870104,9.48138517921949,0.07884322022946784,0.11239965150722823,0.1979269422396348
1056.640625,2.213861470839814,1.4277229416796278,9.48138517921949,0.04803198670788957,0.4252600284947977,0.1913616223646676
1066.40625,2.2376662356000048,1.4277134235809632,9.48090927428626,0.30898193246600586,0.19255643407530088,0.1526129237719884
1076.171875,2.2377914043312392,1.4041542372339075,9.493426147409659,0.4473819215563901,0.03736824034309275,0.1571006875375364
1085.9375,2.214104669728284,1.4163045775518053,9.505705068066447,0.17018450804314342,0.03410907560017104,0.10838162675861206
1095.703125,2.2617165787733327,1.4043855384990462,9.5049912106666,0.20219755411347065,-0.15224381370454798,0.2351282015084772
1105.46875,2.2618346089305685,1.4165263607182792,9.516794226390157,0.2464676125626017,-0.09100259665086152,0.05029699799729356
1115.234375,2.2614757594095294,1.4039038997714393,9.48090927428626,0.18695469200911105,-0.042634364385999664,0.2481210072139461
1125.0,2.2732553525830568,1.4155583242137335,9.468392401162859,0.09530668701433027,0.03534642716814128,0.3069946045844492
1134.765625,2.285398554326956,1.416035203892008,9.492236385076586,0.2325673935097078,0.20790340766258808,0.19755410884932997
1144.53125,2.2495757565541004,1.392008655965342,9.48138517921949,0.1716147372240232,0.5523899422333922,0.25140454484659075
1154.296875,2.237673374174004,1.3920134150146743,9.481623131686106,0.2028421982098336,0.4592138547497717,0.2995926111447716
1164.0625,2.2255277929054382,1.4034365381918297,9.457541195305767,0.2023164604624745,0.02015506009479013,0.2470188364088639
1173.828125,2.2375505849674355,1.4036725985063008,9.469344211029322,0.1709669611057013,-0.04340918243702924,0.18662693301439884
1183.59375,2.2495733770294337,1.4039086588207716,9.481147226752878,0.12409920268305295,-0.15425919784219833,0.11168813917385853
1193.359375,2.249450587822865,1.4155678423123983,9.468868306096091,0.2310651278237716,0.04976904805902503,0.047327540255707526
1203.125,2.237543446393437,1.4393726070725896,9.468630353629477,0.293773522603195,0.1299219017709692,0.16905095363233036
1212.890625,2.2496914071866687,1.4160494810400048,9.49295024247643,0.2929191435210179,-0.19983687074964127,0.08361304541462017
1222.65625,2.2615937895667653,1.4160447219906724,9.492712290009816,0.15406221068093487,-0.060771897330705725,0.03343090667919033
1232.421875,2.2852781446450545,1.4157943845282044,9.480195416886415,0.2001631761508202,0.04930365719217275,0.03169040524343162
1242.1875,2.2852781446450545,1.4157943845282044,9.480195416886415,0.23286784664689505,0.23953027958330064,0.2275994225680545
1251.953125,2.261596169091431,1.4041447191352427,9.49295024247643,0.43087460646410203,0.3336410776567542,0.04364819445015625
1261.71875,2.2733733827402927,1.4276991464329662,9.480195416886415,0.35476678468890904,0.3492978355969576,0.11926109763801745
1271.484375,2.2496914071866687,1.4160494810400048,9.49295024247643,0.13904150116478814,0.4719280185060096,0.06863897120594488
1281.25,2.2734961719468605,1.4160399629413405,9.492474337543198,0.12518826244127884,0.5359558660609866,0.22059411499644455
1291.015625,2.225884262901811,1.4279590019940989,9.493188194943047,0.2936701658785488,0.6466538466396091,0.1587152811677111
1300.78125,2.213745820207244,1.4036821166049651,9.469820115962554,0.30932299140322256,0.7880457743928061,0.1867188174936608
1310.546875,2.190061465128955,1.4039324540674332,9.482336989085953,0.23151569704411526,0.8646328935275629,0.09238446229007394
1320.3125,2.201966227033717,1.3920276921626709,9.482336989085953,0.27667156528045034,0.3316239076754091,-0.0038657625007036773
1330.078125,2.225766232744576,1.4158181797748661,9.48138517921949,0.24831104767119186,-0.1048024343172622,0.2346405088563087
1339.84375,2.237911814013141,1.4043950565977108,9.505467115599833,0.13993357499591014,-0.1536392719676269,0.15784635431814598
1349.609375,2.225768612269242,1.4039181769194362,9.481623131686106,0.1538837959147105,0.06434156076402159,0.01558943005675011
1359.375,2.213745820207244,1.4036821166049651,9.469820115962554,0.2938079748447437,-0.04232207985191076,0.17249617778720344
1369.140625,2.24933255766563,1.4034270200931651,9.457065290372537,0.3382877682796889,-0.26277975873193343,0.008638472857435556
1378.90625,2.2494553468721983,1.391767836601539,9.469344211029322,0.07694038718909435,-0.34371171651977456,0.0076436382022864345
1388.671875,2.2852781446450545,1.4157943845282044,9.480195416886415,0.15396522848564384,-0.34278057761733105,0.02373268715008649
1398.4375,2.2734914128975285,1.4398399686521994,9.49199843260997,0.2937923147349488,0.035970639067580135,0.17093016680771567
1408.203125,2.2617141992486665,1.416285541354476,9.504753258199989,0.3239993994747565,0.4429385996099526,0.117080608505616
1417.96875,2.2614805184588618,1.38010389406058,9.48138517921949,0.2629654211035757,0.4271237349746405,0.16279883595326075
1427.734375,2.2495733770294337,1.4039086588207716,9.481147226752878,0.4010618250348136,0.25596721310561793,0.1369280838041867
1437.5,2.237911814013141,1.4043950565977108,9.505467115599833,0.20091430899378832,0.12837083699395427,0.10680368954024284
1447.265625,2.249811816868571,1.4162903004038083,9.5049912106666,0.18662605067429305,0.06666565774837134,0.2152568737321436
1457.03125,2.225768612269242,1.4039181769194362,9.481623131686106,0.33776192004689265,0.06558498420055398,-0.043946350422192464
1466.796875,2.237545825918103,1.4274726042171602,9.468868306096091,0.3225535101840818,0.0029504518962223127,-0.0275083205618505
1476.5625,2.2255230338561063,1.4272365439026886,9.457065290372537,0.3986394078055618,0.09690350044330616,-0.10531363912099456
1486.328125,2.249445828773533,1.4393678480232572,9.468392401162859,0.368767117959053,0.3167419677862353,-0.01798459148901761
1496.09375,2.2614662413108646,1.4515039111931576,9.479957464419801,0.3398462998754496,0.3809243503489313,0.16449163243349366
1505.859375,2.2375386873441045,1.4631726127834488,9.468154448696248,0.1545722883184991,0.4565796162437667,0.08443867043561028
1515.625,2.2258866424264774,1.4160589991386694,9.493426147409659,0.1711671895402013,0.4892910905684251,0.2066497764644016
1525.390625,2.237555344016768,1.3798725927954416,9.469820115962554,0.09380117882099788,0.6602941489359454,0.15644378525120886
1535.15625,2.249816575917903,1.3924902946929492,9.505467115599833,0.016992336554180497,0.34634702653199634,0.16195463927661968
1544.921875,2.2379141935378066,1.392495053742281,9.505705068066447,0.18687325943817767,0.364487773995353,0.2399777501206097
1554.6875,2.249821334967236,1.3686902889820898,9.505943020533062,0.046557909219584116,0.12619877483615102,0.043953873534123125
1564.453125,2.237793783855905,1.3922542343784778,9.493664099876275,0.4014937126088407,0.3973587836900759,0.18011684120688812
1574.21875,2.22564820258734,1.4036773575556332,9.469582163495938,0.23133426074136906,0.2379813578187194,0.07424083201545648
1583.984375,2.2138662298891463,1.4039229359687686,9.48186108415272,0.4313378142577187,0.3184472104022304,0.08996897381183319
1593.75,2.225881883377145,1.4398590048495286,9.49295024247643,0.44730675302937467,0.4131732911566491,0.1495838348359951
1603.515625,2.1900543265549564,1.4396324626337218,9.481623131686106,0.2310024873845921,0.3629399237369886,0.04106349633775646
1613.28125,2.1781543236995264,1.4277372188276247,9.482099036619335,0.4001166173158263,0.3803062103180546,0.042407311905447484
1623.046875,2.201959088459718,1.42772770072896,9.481623131686106,0.3700378349908994,0.09876149222332573,0.10908711169562653
1632.8125,2.190177115761524,1.4279732791420958,9.493902052342893,0.15576481528680833,-0.13736080230915726,0.2036913672665359
1642.578125,2.201838678777816,1.427486881365157,9.469582163495938,0.06273345095509522,-0.04511549655924125,0.12422903094380325
1652.34375,2.190061465128955,1.4039324540674332,9.482336989085953,0.14143897270380534,-0.011163456147962032,0.30838612510766605
1662.109375,2.213745820207244,1.4036821166049651,9.469820115962554,0.2027265343682259,-0.4962671004209335,0.2880262269840028
1671.875,2.225768612269242,1.4039181769194362,9.481623131686106,0.081146841595153,-0.6683590472172671,0.4282890788081496
1681.640625,2.2495709975047675,1.4158086616762011,9.48090927428626,0.11010211192030522,-0.9047854114028432,0.24925807904051145
1691.40625,2.285521343533524,1.4043760204003817,9.504515305733369,0.07965397197509369,-0.8734690381725245,0.2790021168022198
1701.171875,2.2973033162317185,1.4041304419872458,9.492236385076586,0.1881597470652562,-0.6992089580745163,0.3686265128284619
1710.9375,2.3092009395624817,1.4279256886487728,9.49152252767674,0.15570228533306602,-0.5916134642186626,0.19743837189230515
1720.703125,2.2971829065498164,1.4038896226234423,9.480195416886415,0.24964440514221786,-0.6359537855581353,0.3679762559589039
1730.46875,2.2971757679758182,1.4395896311897312,9.479481559486567,0.1092476223526909,-0.4671206463359846,0.16380912227908095
1740.234375,2.297060117343248,1.4155488061150687,9.46791649622963,0.26155711607640875,-0.200766938145868,0.021968333236564882
1750.0,2.297060117343248,1.4155488061150687,9.46791649622963,0.308528120738266,0.16077466997813014,0.1072317509980041
1759.765625,2.309203319087148,1.416025685793343,9.491760480143354,0.3392579216889109,0.2550364313719134,0.10565381377963487
1769.53125,2.261707060674668,1.4519855499207646,9.50403940080014,0.2620202133845883,0.5514627321870772,0.06827806405452151
1779.296875,2.2496914071866687,1.4160494810400048,9.49295024247643,0.18650390181789295,0.6773488653204004,0.203041988092139
1789.0625,2.2376662356000048,1.4277134235809632,9.48090927428626,0.18512993854683754,0.6446377481644808,0.06564566098659594
1798.828125,2.2495686179801013,1.4277086645316308,9.480671321819646,0.2163918517741967,0.3792176790579803,0.11727895143964985
1808.59375,2.261352970202961,1.4155630832630657,9.468630353629477,0.06053631833601525,0.2032527135127159,-0.09548423096419477
1818.359375,2.285518964008858,1.4162760232558114,9.504277353266755,0.21573456910456065,0.5978177233267223,0.05155068447604489
1828.125,2.2376662356000048,1.4277134235809632,9.48090927428626,0.12255924224817186,0.6429325055484857,-0.04230790431425487
1837.890625,2.2495733770294337,1.4039086588207716,9.481147226752878,0.18635993929321729,0.6302183417922477,0.1886457356245719
1847.65625,2.2377890248065735,1.4160542400893372,9.493188194943047,0.13868467163233933,0.7221549346954642,0.03295601796106442
1857.421875,2.261596169091431,1.4041447191352427,9.49295024247643,0.030773538772633363,0.6424656860066776,0.0027958449804762198
1867.1875,2.2495757565541004,1.392008655965342,9.48138517921949,0.18374971123186412,0.6432437185763578,-0.07237707051074226
1876.953125,2.201959088459718,1.42772770072896,9.481623131686106,0.38406624597323696,0.6927022679449886,-0.02535080621205084
1886.71875,2.214104669728284,1.4163045775518053,9.505705068066447,0.35468222009601674,0.7720785177622086,0.11080463834878347
1896.484375,2.1780362935422906,1.4155963966083918,9.470296020895782,0.2915356736986483,0.5818511810336027,-0.054733936822335884
1906.25,2.2020794981416203,1.4279685200927634,9.493664099876275,0.2622268163484435,0.2854223800372663,0.08893836044003972
1916.015625,2.1899339168730543,1.4393916432699188,9.469582163495938,0.13974576416380882,0.01844981747879496,0.1390652711080131
1925.78125,2.2020771186169537,1.4398685229481931,9.493426147409659,-0.07591687892113258,-0.17209087529011655,0.0947071885938916
1935.546875,2.2017182690959145,1.4272460620013532,9.457541195305767,0.01788441038530251,-0.27922026394164023,0.2511620223888208
1945.3125,2.201838678777816,1.427486881365157,9.469582163495938,0.18794061601356515,-0.3705344307891127,0.3467134076593535
1955.078125,2.2256434435380075,1.4274773632664919,9.469106258562707,0.07863672775104985,-0.3889835339304298,0.1772776943978369
1964.84375,2.2376709946493376,1.403913417870104,9.48138517921949,-0.04420741800995155,-0.3744120927316501,0.19109524742913472
1974.609375,2.261471000360197,1.4277039054822984,9.48043336935303,0.20193155321783213,-0.35611466724814056,0.2085281119446258
1984.375,2.2736189611534283,1.404380779449714,9.504753258199989,0.07904042712744609,-0.10666506929088816,0.21764763203746032
1994.140625,2.2856417532154256,1.404616839764185,9.51655627392354,0.15668496683012392,-0.1364314492504085,0.2957065215980947
2003.90625,2.2856393736907594,1.4165168426196146,9.516318321456929,0.24753485865255195,-0.058601263847858284,0.15702160699231704
2013.671875,2.249816575917903,1.3924902946929492,9.505467115599833,0.15512632474892615,-0.012712020743804321,0.13984231347831624
2023.4375,2.2377914043312392,1.4041542372339075,9.493426147409659,0.1706226596610884,0.14418355861683269,0.1521967885531086
2033.203125,2.2376686151246714,1.4158134207255335,9.481147226752878,0.016638749529127868,-0.1865081386499161,0.12659593677135708
2042.96875,2.24933255766563,1.4034270200931651,9.457065290372537,-0.029017800278894525,-0.2178262977239293,0.17277800439340746
2052.734375,2.285282903694387,1.391994378817345,9.480671321819646,0.15460058700156706,-0.4517708153987859,0.08726853874240856
2062.5,2.2852781446450545,1.4157943845282044,9.480195416886415,0.18507993668093115,0.12775091111938286,0.0606454743959554
2072.265625,2.273375762264959,1.4157991435775368,9.48043336935303,0.2610093436898996,0.2372076112739067,-0.032808905414346015
2082.03125,2.261468620835531,1.439603908337728,9.480195416886415,0.278349113710652,0.38030335296814294,0.16388908051946144
2091.796875,2.2732505935337244,1.439358329924593,9.46791649622963,0.2952507321134594,0.4133246116457177,0.3167719046587724
2101.5625,2.249689027662003,1.4279494838954343,9.492712290009816,0.32414336199943217,0.4900691231381053,0.13147686097318312
2111.328125,2.273736991310664,1.4165216016689468,9.51655627392354,0.4151184242147819,0.7089810947721972,0.005308985659587311
2121.09375,2.2377818862325745,1.451754248655626,9.492474337543198,0.3545413895933,0.7092894504501577,0.0967215880771139
2130.859375,2.2258866424264774,1.4160589991386694,9.493426147409659,0.2166609846917942,0.5674299888176748,0.1441922431993988
2140.625,2.2495709975047675,1.4158086616762011,9.48090927428626,0.07618601183873007,0.36030318504981096,-0.06779389683414266
2150.390625,2.2018410583024823,1.4155868785097272,9.469820115962554,0.030995801846283418,0.2981326149373757,0.02502215234548219
2160.15625,2.2138662298891463,1.4039229359687686,9.48186108415272,0.23097743120892025,0.488208274008174,0.03855787877057603
2169.921875,2.249693786711336,1.4041494781845751,9.493188194943047,0.10787354859619827,0.26759177409556484,0.02640174662981756
2179.6875,2.2375482054427693,1.4155726013617305,9.469106258562707,0.1092349837794178,0.36293706638707707,0.16254526495177046
2189.453125,2.2613553497276278,1.4036630804076358,9.468868306096091,0.32423732265820143,0.020312809621159854,0.14087292685010971
2199.21875,2.2377914043312392,1.4041542372339075,9.493426147409659,0.15414979681034902,0.26821241430761417,0.042189519620601516
2208.984375,2.2496914071866687,1.4160494810400048,9.49295024247643,0.2474847463012084,0.19193543669451255,0.15201037185795618
2218.75,2.237786645281907,1.4279542429447667,9.49295024247643,0.16984960266440746,0.17472618530233838,0.07489108888501449
2228.515625,2.2498094373439046,1.4281903032592378,9.504753258199989,0.21583479380724788,0.0967443222419806,0.061573154744766614
2238.28125,2.2617141992486665,1.416285541354476,9.504753258199989,0.18628801327359806,0.22294131123443686,0.18145313366264848
2248.046875,2.249689027662003,1.4279494838954343,9.492712290009816,0.2306926381815279,0.37828868316797054,0.010078576031339305
2257.8125,2.225879503852479,1.451759007704958,9.492712290009816,0.2788373776799405,0.2398411354424337,0.2127154774483188
2267.578125,2.249689027662003,1.4279494838954343,9.492712290009816,0.26364462792692456,0.0989138842186112,0.2307195182881485
2277.34375,2.225763853219909,1.4277181826302954,9.481147226752878,-0.045018059270140194,-0.15596694063936614,0.11003112141026997
2287.109375,2.21386385036448,1.4158229388241983,9.481623131686106,0.2781019049467673,0.08248123672116135,0.13916820413099534
2296.875,2.225766232744576,1.4158181797748661,9.48138517921949,0.017324109910957498,0.2213884606137272,0.1951319749543197
2306.640625,2.213745820207244,1.4036821166049651,9.469820115962554,0.032147612529126,-0.09224673442487183,0.1402032206297396
2316.40625,2.2734961719468605,1.4160399629413405,9.492474337543198,0.155041870641471,-0.3573548761660224,0.13139690273280266
2326.171875,2.2495709975047675,1.4158086616762011,9.48090927428626,0.2005074775954331,-0.13828908386168914,0.06612054970472185
2335.9375,2.2496914071866687,1.4160494810400048,9.49295024247643,0.10931954837231014,-0.05984361577817384,0.17100172424100438
2345.703125,2.249689027662003,1.4279494838954343,9.492712290009816,0.2326269019269283,-0.08960892423147734,0.2035049505713835
2355.46875,2.2496914071866687,1.4160494810400048,9.49295024247643,0.09502189398693793,-0.07457316367206221,0.27851530184521245
2365.234375,2.261357729252293,1.3917630775522063,9.469106258562707,0.06215133681247459,-0.20232050310405555,0.0660176166817396
2375.0,2.2734937924221943,1.4279399657967695,9.492236385076586,0.24864595304992784,-0.2454195440194296,0.26813104672990623
2384.765625,2.273375762264959,1.4157991435775368,9.48043336935303,0.16947409148564202,-0.2485191733922868,0.037339971008469024
2394.53125,2.2733733827402927,1.4276991464329662,9.480195416886415,0.2178566436820624,-0.04216897351914739,0.263758142226222
2404.296875,2.2734937924221943,1.4279399657967695,9.492236385076586,0.17121416986958593,0.25441293380995245,0.2113478094028649
2414.0625,2.2731373224258213,1.4034175019945003,9.456589385439306,0.14027776595508584,0.4261915245659801,0.19226545023571592
2423.828125,2.261471000360197,1.4277039054822984,9.48043336935303,0.04897093038295902,0.33223811885015736,0.2852559898716117
2433.59375,2.273614202104096,1.4281807851605732,9.504277353266755,0.24620463320348496,0.4568915436091167,0.023999062085619388
2443.359375,2.249693786711336,1.4041494781845751,9.493188194943047,0.20270763175103484,0.3651076998699244,0.2861359652648971
2453.125,2.2495709975047675,1.4158086616762011,9.48090927428626,0.3684510047120709,0.3634078147850136,-0.04959591618722987
2462.890625,2.2258866424264774,1.4160589991386694,9.493426147409659,0.23104320367005876,0.1593788545463123,0.04513512488442465
2472.65625,2.213861470839814,1.4277229416796278,9.48138517921949,0.015909430354435386,0.3922384126484841,0.05366401930210842
2482.421875,2.2258866424264774,1.4160589991386694,9.493426147409659,0.09247106385736813,0.40836341880545135,0.02343228888823153
2492.1875,2.2258866424264774,1.4160589991386694,9.493426147409659,0.18534906959852865,0.31596322087907724,0.08755876615570436
2501.953125,2.2377890248065735,1.4160542400893372,9.493188194943047,0.09238974177187197,0.048062019599335114,0.015300080338615452
2511.71875,2.225889021951144,1.4041589962832397,9.493664099876275,0.062107488505048936,0.016899109870518975,0.06163278593917385
2521.484375,2.2375482054427693,1.4155726013617305,9.469106258562707,0.0480413827737665,0.3782843971431031,0.19230122895236024
2531.25,2.249693786711336,1.4041494781845751,9.493188194943047,0.18536472970832352,0.23767050195958636,0.08912477713519212
2541.015625,2.249450587822865,1.4155678423123983,9.468868306096091,0.12419305285638504,0.1434080262283252,0.12107315650706485
2550.78125,2.2377890248065735,1.4160542400893372,9.493188194943047,0.17029401832627036,0.2534835807512037,0.11933265507130612
2560.546875,2.261591410042098,1.4279447248461017,9.492474337543198,0.15415606085426695,0.2368953267398178,0.042815924012396624
2570.3125,2.2495709975047675,1.4158086616762011,9.48090927428626,0.24822648307829956,0.3179782478479887,0.22618404956707475
2580.078125,2.2376686151246714,1.4158134207255335,9.481147226752878,0.19974683820115088,0.5970429052756927,-0.009943389723502343
2589.84375,2.2138662298891463,1.4039229359687686,9.48186108415272,0.3404346780619881,0.5068122693259492,0.2233294510873524
2599.609375,2.2019614679843844,1.4158276978735305,9.48186108415272,0.3389480724858468,0.2703851908028953,0.07466889347321774
2609.375,2.2139842600463817,1.4160637581880018,9.493664099876275,0.15497296615837355,-0.012866912920262444,0.12450645442305648
2619.140625,2.213741061157912,1.4274821223158245,9.469344211029322,0.06303703611424145,-0.02914716842242682,0.1545875468584253
2628.90625,2.2375482054427693,1.4155726013617305,9.469106258562707,0.17255692340648882,-0.3237140487826152,0.3456231630931528
2638.671875,2.2375482054427693,1.4155726013617305,9.469106258562707,0.12378308943607085,-0.10759335084342003,0.08007681447564627
2648.4375,2.2612325605210595,1.4153222638992622,9.456589385439306,0.2166736232650673,-0.2626277239053869,0.14545610052670932
2658.203125,2.261473379884863,1.4158039026268692,9.480671321819646,0.2936514842322321,-0.026818428244470702,0.15684711653604608
2667.96875,2.2615985486160968,1.392244716279813,9.493188194943047,0.2468775759829159,0.15999878042088372,0.0912933400287121
2677.734375,2.261596169091431,1.4041447191352427,9.49295024247643,0.2319195069059487,0.3795278205796355,0.13276544847341767
2687.5,2.249811816868571,1.4162903004038083,9.5049912106666,0.15489779763135814,0.3629381378932938,0.1169896017215152
2697.265625,2.2498094373439046,1.4281903032592378,9.504753258199989,0.2323295808117001,-0.13689433993608816,0.17377283904855656
2707.03125,2.2377914043312392,1.4041542372339075,9.493426147409659,0.3396178832433187,-0.010849028601439428,0.1416499692204129
2716.796875,2.2498094373439046,1.4281903032592378,9.504753258199989,-0.028016326650082773,0.1434044545409357,0.2729253672745823
2726.5625,2.2375482054427693,1.4155726013617305,9.469106258562707,0.2937328063177283,0.33348297096164553,0.16497932508566215
2736.328125,2.2376662356000048,1.4277134235809632,9.48090927428626,0.15615911859732765,0.1919332936820789,0.2431216983184667
2746.09375,2.2496914071866687,1.4160494810400048,9.49295024247643,0.1084181889607484,-0.15472423154031167,0.08086578308483089
2755.859375,2.2376686151246714,1.4158134207255335,9.481147226752878,0.264148552006008,-0.11984105222658893,0.2811119261964937
2765.625,2.225768612269242,1.4039181769194362,9.481623131686106,0.2467304814362813,0.12852680067662922,0.0765838853652474
2775.390625,2.22564820258734,1.4036773575556332,9.469582163495938,0.13914485788943434,-0.04480392636263025,0.07897464367056413
2785.15625,2.2376686151246714,1.4158134207255335,9.481147226752878,0.23077720277442024,-0.0444919989972803,0.018535035320573243
2794.921875,2.2617141992486665,1.416285541354476,9.504753258199989,0.20107706365021785,0.08155009781871786,0.1230791551831953
2804.6875,2.225889021951144,1.4041589962832397,9.493664099876275,0.1875023539101829,0.28681462378169464,0.3028871973211366
2814.453125,2.2376686151246714,1.4158134207255335,9.481147226752878,0.17065397988067815,-0.01240187922214912,0.1553288105120841
2824.21875,2.2258866424264774,1.4160589991386694,9.493426147409659,0.16977454462282926,-0.2168923014715742,0.06738528472719353
2833.984375,2.2732505935337244,1.439358329924593,9.46791649622963,0.2167925296140712,-0.0902288501060488,0.15734673542709604
2843.75,2.285393795277624,1.439835209602867,9.491760480143354,0.24689636811466975,0.06604751771749466,0.09317255320409742
2853.515625,2.2855118254348588,1.4519760318221,9.50356349586691,0.1241836567905081,0.19038365758001974,0.12013354991937215
2863.28125,2.2496914071866687,1.4160494810400048,9.49295024247643,0.3686325515002543,0.22263581290638804,-0.03144123736889209
2873.046875,2.2379070549638085,1.4281950623085702,9.5049912106666,0.06361288621294413,0.15937492569018386,0.21217255672869384
2882.8125,2.261596169091431,1.4041447191352427,9.49295024247643,0.12403969426583245,0.1432531340518671,0.10573729745180503
2892.578125,2.2734914128975285,1.4398399686521994,9.49199843260997,0.20015378008494328,0.09627928854386728,0.030750798655738962
2902.34375,2.2615937895667653,1.4160447219906724,9.492712290009816,0.26190130703558445,0.3790638583877391,0.05638742915413481
2912.109375,2.237911814013141,1.4043950565977108,9.505467115599833,0.2618793828818716,0.4886736648750264,0.054195013782851936
2921.875,2.2495733770294337,1.4039086588207716,9.481147226752878,0.3698061758513725,0.4900701946443221,0.0859211977429279
2931.640625,2.225768612269242,1.4039181769194362,9.481623131686106,0.04760949519973949,0.23689282655864516,0.14911247154965884
2941.40625,2.2376686151246714,1.4158134207255335,9.481147226752878,0.3399214684024649,0.0051192995353749994,0.17200848513503494
2951.171875,2.2376709946493376,1.403913417870104,9.48138517921949,0.3409479982069485,0.2410817015290545,0.2746614655833902
2960.9375,2.2495733770294337,1.4039086588207716,9.481147226752878,0.2016779699245923,0.1448038416601431,0.1831697826206443
2970.703125,2.2375505849674355,1.4036725985063008,9.469344211029322,0.2788248495921047,0.3024753105780265,0.2114626686647286
2980.46875,2.213859091315148,1.4396229445350577,9.481147226752878,0.340012186553838,0.3184450673897967,0.18108030027234367
2990.234375,2.2376686151246714,1.4158134207255335,9.481147226752878,0.30833091384028777,0.37983939077624657,0.08751106120017857
3000.0,2.2139842600463817,1.4160637581880018,9.493664099876275,0.18738657958313806,0.09875720619845832,0.2913097646166475
3009.765625,2.2379046754391423,1.440095065164,9.504753258199989,0.1245436183449159,-0.07550180239333308,0.15612970536015014
3019.53125,2.213861470839814,1.4277229416796278,9.48138517921949,0.34066320517955617,0.13116211068885106,0.2461821628441535
3029.296875,2.2376638560753386,1.439613426436393,9.480671321819646,0.2466115750872774,-0.043872073122708855,0.06469325046486069
3039.0625,2.225770991793908,1.3920181740640063,9.48186108415272,0.2165077365866788,-0.20014844094625234,0.12886743268785933
3048.828125,2.2495709975047675,1.4158086616762011,9.48090927428626,0.1092100380891832,-0.2792181209292065,0.1600506959283103
3058.59375,2.2731373224258213,1.4034175019945003,9.456589385439306,0.23131871111701136,-0.4511494608492586,0.07268586957968902
3068.359375,2.2852805241697207,1.4038943816727747,9.48043336935303,0.04681149251282394,-0.37471973407213255,0.06931220285810462
3078.125,2.2971757679758182,1.4395896311897312,9.479481559486567,0.04709941756217528,-0.2804586870158273,0.09810470779323892
3087.890625,2.273375762264959,1.4157991435775368,9.48043336935303,0.30854691287001984,0.06682340727474106,0.10911096417338942
3097.65625,2.297060117343248,1.4155488061150687,9.46791649622963,0.13860334954684314,0.36185353548934795,0.024823809411448343
3107.421875,2.2971805270251497,1.4157896254788718,9.479957464419801,0.29266242820581906,0.3167401819425405,0.05794151389474113
3117.1875,2.261596169091431,1.4041447191352427,9.49295024247643,0.06276779271120676,0.5500640594053476,0.12766320655495605
3126.953125,2.2377914043312392,1.4041542372339075,9.493426147409659,0.2476630505819956,0.8342455161872542,0.1698407999366761
3136.71875,2.2377890248065735,1.4160542400893372,9.493188194943047,0.20111140540632935,0.6767296537833067,0.12651333079434807
3146.484375,2.213741061157912,1.4274821223158245,9.469344211029322,0.0015804557494734095,0.5340943025935775,0.15804557494734098
3156.25,2.21386385036448,1.4158229388241983,9.481623131686106,0.30799914048351074,0.5047979566945157,0.05433372552247853
3166.015625,2.213743440682578,1.415582119460395,9.469582163495938,0.07923439151802818,0.4573522912823626,0.237044071095668
3175.78125,2.20183629925315,1.4393868842205864,9.469344211029322,0.18489838989274776,0.26852291299800835,0.04249079557761762
3185.546875,2.225766232744576,1.4158181797748661,9.48138517921949,0.07730963432394186,0.110850729742647,0.04456835168703679
3195.3125,2.237545825918103,1.4274726042171602,9.468868306096091,0.047074361386503484,-0.15519033674464186,0.09559909022605848
3205.078125,2.2376686151246714,1.4158134207255335,9.481147226752878,0.12480648721859545,0.14402759493415773,0.18241659272810404
3214.84375,2.2379070549638085,1.4281950623085702,9.5049912106666,0.2924934095054716,0.3948780086855733,0.04103964385999356
3224.609375,2.225889021951144,1.4041589962832397,9.493664099876275,0.2477914634823136,0.19224522104742886,0.1826820899684758
3234.375,2.237786645281907,1.4279542429447667,9.49295024247643,0.03306776407244158,-0.09131738136612308,0.2322183749612984
3244.140625,2.249814196393237,1.4043902975483786,9.505229163133217,0.2470841789467711,-0.1060415717289272,0.1119536364142303
3253.90625,2.2376686151246714,1.4158134207255335,9.481147226752878,0.2019846871056975,0.14511362601305933,0.21384150073116387
3263.671875,2.2255230338561063,1.4272365439026886,9.457065290372537,0.14063459548753462,0.17596460837652547,0.2279484034805964
3273.4375,2.225761473695244,1.439618185485725,9.48090927428626,0.2940802397843002,0.13023168612388547,0.19972267174285
3283.203125,2.249566238455435,1.4396086673870605,9.48043336935303,0.06366299856428774,-0.09116177485218704,0.2171837918630547
3292.96875,2.225761473695244,1.439618185485725,9.48090927428626,-0.030291649332699937,0.015812721622878403,0.045393099012865736
3302.734375,2.237545825918103,1.4274726042171602,9.468868306096091,0.07839880456760492,0.03364225605836297,0.15348537605334314
3312.5,2.2615937895667653,1.4160447219906724,9.492712290009816,0.17050375331208453,-0.028215315182505432,0.14030615365272187
3322.265625,2.273378141789625,1.403899140722107,9.480671321819646,0.18514570914206965,-0.20107850834247892,0.06722272050980402
3332.03125,2.261596169091431,1.4041447191352427,9.49295024247643,-0.029646894750899794,-0.14015314751027091,0.10986855719288048
3341.796875,2.2736189611534283,1.404380779449714,9.504753258199989,0.09549449784643163,-0.13674266227828058,0.32577568779458205
3351.5625,2.2973033162317185,1.4041304419872458,9.492236385076586,0.2918237092334369,-0.09131130949756093,-0.025930383343481286
3361.328125,2.297421346388953,1.416271264206479,9.50403940080014,0.2163230577765365,-0.04371789528372863,0.11039955167362396
3371.09375,2.285516584484192,1.4281760261112408,9.50403940080014,0.2469588980684121,0.520300179627,0.09942554857832817
3380.859375,2.285636994166093,1.4284168454750439,9.51608036899031,0.2903182010401044,0.5336364122702432,-0.1764812026767216
3390.625,2.2379070549638085,1.4281950623085702,9.5049912106666,0.4169837834770849,0.5855714506185092,0.1918449118898853
3400.390625,2.225884262901811,1.4279590019940989,9.493188194943047,0.3372110156384246,0.5192180774042269,-0.0990367912690009
3410.15625,2.2376662356000048,1.4277134235809632,9.48090927428626,0.15363334464342965,0.549601525888407,-0.00945569707133384
3419.921875,2.237786645281907,1.4279542429447667,9.49295024247643,0.4466933186671643,0.4125537224508166,0.08824039861495593
3429.6875,2.213743440682578,1.415582119460395,9.469582163495938,0.1859155236313544,0.5514609463433824,0.14420416943828024
3439.453125,2.20183629925315,1.4393868842205864,9.469344211029322,0.20116464977963194,0.4105344094570378,0.13183776812460649
3449.21875,2.201600238938679,1.4151052397821204,9.44573817958221,0.21625728531539795,0.2851115241781332,0.10382230555977537
3458.984375,2.2018434378271485,1.4036868756542975,9.470058068429168,0.13851263139547007,0.04852776763492633,0.01575199427413961
3468.75,2.2375482054427693,1.4155726013617305,9.469106258562707,0.1259050535281354,0.019843489898179127,0.29227322368210307
3478.515625,2.2375482054427693,1.4155726013617305,9.469106258562707,0.124199316900303,0.11209093866052884,0.12169956089885993
3488.28125,2.2496914071866687,1.4160494810400048,9.49295024247643,0.20092057303770627,0.09705374942615792,0.10743009393203796
3498.046875,2.249811816868571,1.4162903004038083,9.5049912106666,0.21708671870734048,-0.02728489061753983,0.18676564475402546
3507.8125,2.2377914043312392,1.4041542372339075,9.493426147409659,0.14079735014396416,0.1291438692012891,0.2442238691235488
3517.578125,2.226007052108379,1.4162998185024729,9.505467115599833,0.2620953819116037,0.17565768137352086,0.0757949167560628
3527.34375,2.249696166236001,1.3922494753291454,9.493426147409659,0.29411156000388994,-0.02635375171509633,0.2028546937018255
3537.109375,2.2375505849674355,1.4036725985063008,9.469344211029322,0.2324735433363757,-0.08976381640793547,0.1881690915161237
3546.875,2.2495757565541004,1.392008655965342,9.48138517921949,0.1861503147928404,0.1444937001384879,0.16768328558687642
3556.640625,2.2495709975047675,1.4158086616762011,9.48090927428626,-0.06104963848097561,0.0624778542841788,0.044152216468156966
3566.40625,2.2494482082981992,1.4274678451678275,9.468630353629477,0.13758934783019552,0.06325695836007576,-0.07657636225331674
3576.171875,2.2375482054427693,1.4155726013617305,9.469106258562707,0.3230167179776985,-0.012243415358301495,0.01881245879982645
3585.9375,2.249566238455435,1.4396086673870605,9.48043336935303,0.29213982248041903,-0.1379771564963392,0.005680941354730973
3595.703125,2.2256410640133413,1.4393773661219218,9.468868306096091,0.3383377701455953,0.25410707831316465,0.013638659448076094
3605.46875,2.213741061157912,1.4274821223158245,9.469344211029322,0.13876923622523168,0.29937425253021344,0.04141247725029836
3615.234375,2.249566238455435,1.4396086673870605,9.48043336935303,0.21719936101242635,0.1764310707495946,0.19802987526261706
3625.0,2.249814196393237,1.4043902975483786,9.505229163133217,0.0473528903699779,-0.013953658336641963,0.12345198857350012
3634.765625,2.249563858930769,1.45150867024249,9.480195416886415,-0.045224662233995384,0.11007341151044478,0.08937082502475177
3644.53125,2.225884262901811,1.4279590019940989,9.493188194943047,0.047587571046026664,0.3465026330459324,0.14692005617837595
3654.296875,2.2377914043312392,1.4041542372339075,9.493426147409659,0.1699716410353703,0.3314665153177784,0.08709492598129875
3664.0625,2.225889021951144,1.4041589962832397,9.493664099876275,0.18693903189931613,0.03565835453349124,0.2465549962344583
3673.828125,2.261591410042098,1.4279447248461017,9.492474337543198,0.09300004411212336,0.06434013208906579,0.07633031436375709
3683.59375,2.225881883377145,1.4398590048495286,9.49295024247643,0.1872144288608316,0.19255357672538928,0.2740946923860024
3693.359375,2.2138662298891463,1.4039229359687686,9.48186108415272,0.4018599382071664,0.10015623614892674,0.2167394010394612
3703.125,2.2139866395710484,1.404163755332572,9.493902052342893,0.20075781838127674,0.14387448860139435,0.0911546282890855
3712.890625,2.2376709946493376,1.403913417870104,9.48138517921949,0.14022776408917942,-0.09069531247911793,0.18726526364507534
3722.65625,2.2614757594095294,1.4039038997714393,9.48090927428626,0.2637323245417759,-0.3395253417305378,0.23948917977328005
3732.421875,2.225766232744576,1.4158181797748661,9.48138517921949,0.13933580074349464,-0.23255155959295026,0.09806892907659456
3742.1875,2.2495686179801013,1.4277086645316308,9.480671321819646,0.4008334084026828,-0.13580616584475286,0.11408642059110592
3751.953125,2.2493349371902958,1.3915270172377352,9.457303242839153,0.07749118111212522,-0.029921272135978488,0.06272303050537456
3761.71875,2.2733710032156265,1.439599149288396,9.479957464419801,0.13942025485094978,0.1120912958292678,0.1065143398221082
3771.484375,2.2615985486160968,1.392244716279813,9.493188194943047,0.29278133455482297,0.4891390557418786,0.06983214879512784
3781.25,2.2379070549638085,1.4281950623085702,9.5049912106666,0.19900823344601865,0.4553415503383186,-0.08380386523672335
3791.015625,2.2734985514715267,1.4041399600859106,9.492712290009816,0.2623801749389961,0.2855772722137244,0.10427421949529952
3800.78125,2.273614202104096,1.4281807851605732,9.504277353266755,0.3086470270872699,0.3331735437774683,0.11912238589839083
3810.546875,2.237786645281907,1.4279542429447667,9.49295024247643,0.13854070910766367,0.6750244111673117,0.01855976549349728
3820.3125,2.2258866424264774,1.4160589991386694,9.493426147409659,0.5092139026144863,0.6647956656091827,0.19118272878144588
3830.078125,2.2020794981416203,1.4279685200927634,9.493664099876275,0.15427809922522978,0.39363565675525775,0.055019761108680884
3839.84375,2.21386385036448,1.4158229388241983,9.481623131686106,0.24715297294443134,0.3168940026127818,0.11883303618025615
3849.609375,2.2018434378271485,1.4036868756542975,9.470058068429168,0.29439008898736435,0.11488292669290352,0.2307075920492671
3859.375,2.2137386816332456,1.4393821251712542,9.469106258562707,0.2767342057196299,0.01845303199744552,0.002398281417247388
3869.140625,2.2136230310006764,1.4153413000965915,9.457541195305767,-0.014936144923254412,0.10991923367146456,0.04366452381598848
3878.90625,2.2493254190916314,1.4391270286594535,9.45635143297269,0.1397990085371114,-0.2477454268474741,0.1443897084382715
3888.671875,2.2851553554384862,1.4274535680198306,9.46791649622963,0.0644986960001482,-0.4348752772156564,0.3007535354490999
3898.4375,2.297300936707052,1.4160304448426757,9.49199843260997,0.049211985588362935,-0.10604621492253356,0.309361510412003
3908.203125,2.309441758926285,1.4284073273763795,9.515604464057079,0.12682833709341002,0.005114299173029694,0.3846015802095594
3917.96875,2.2857574038479953,1.4286576648388476,9.528121337180481,0.38865447560197897,0.7599832083743251,0.4334721566621529
3927.734375,2.2736118225794297,1.4400807880160031,9.50403940080014,0.4340920048437476,0.352552357146273,0.3653880324147145
3937.5,2.273729852736665,1.4522216102352357,9.515842416523695,0.4666965611225724,0.2764288430346737,0.5512856280143359
3947.265625,2.2261227027409483,1.440340643577135,9.517032178856773,0.3602720338390077,0.43316667286894106,0.6697860126478824
3957.03125,2.2023155584560907,1.4522501645312291,9.517270131323386,0.1752608911557368,0.7283513360912671,0.6160199380179529
3966.796875,2.213974741947717,1.46366376960972,9.492712290009816,-0.009803274929962243,-0.24511583153507546,0.5569515231452056
3976.5625,2.261707060674668,1.4519855499207646,9.50403940080014,-0.11879720350397613,-1.0463372316948432,0.4185117787338265
3986.328125,2.3335982346335173,1.4767202787908436,9.550299653827901,0.08102167120223118,-0.8094408334488088,0.4157720395159678
3996.09375,2.3695366830389437,1.524787651792172,9.572715922941931,0.12786761595660384,-1.3564045491438217,0.4885294665289455
4005.859375,2.3700088036678846,1.573350940669104,9.619927985836151,0.3428730868573464,-1.7146873496936366,0.4671703306231824
4015.625,2.394295207155684,1.574304700025653,9.667615953663603,0.6548409795343453,-2.6467580088827583,0.9183792754944708
4025.390625,2.526179931742618,1.5999789111042841,9.760850317118964,0.7523326025362312,-5.0994162294133885,1.4438674788344887
4035.15625,2.5633248564917275,1.6385544748882168,9.903914220601317,1.7246284535320404,-6.025585627641326,1.8248745615053248
4044.921875,2.5752462750691523,1.543349692995447,9.905579887867624,2.959680101131048,-7.010355932548383,2.347718030091726
4054.6875,2.7202374788551995,1.5714273386627804,10.118985980758074,3.735872356806336,-9.87679537358518,3.1029927905489694
4064.453125,2.685869115363829,1.5026906116800371,10.253578203049488,4.658442902068821,-10.43118798909369,3.1233063483117647
4074.21875,2.578131348385461,1.5729293634375885,10.194087219498481,6.051929402228457,-7.854170559944572,2.579565895405225
4083.984375,2.5777701193397555,1.572206905346178,10.15796431492797,6.897750282185035,-6.7177520169886895,2.611308003284323
4093.75,2.8517681129704275,1.5606790830837125,10.176811297042775,6.249201462710551,-13.289384423704677,2.322144733776045
4103.515625,2.9703245751917757,1.4882681980025982,10.12769561441563,5.718948944197482,-17.844159668477047,1.5643794312777732
4113.28125,3.2080276504206484,1.4041505389365343,10.088479327779122,5.5442420894721725,-19.04180264155588,1.0037631363025263
4123.046875,3.362640591204657,1.3919478490759818,10.07358292998957,5.800071693324831,-18.98210534590443,0.4529802471642203
4132.8125,3.3022739139075354,1.4497859230531671,9.989296152658376,6.871483440718361,-15.734101417238081,-0.015376143383024175
4142.578125,3.182431017579928,1.3291477494455706,9.909768424659491,7.870386539939027,-12.05960118001518,-0.048202270509508593
4152.34375,2.8824085353721784,1.5981504040776908,9.669424965789318,9.530143114254988,-6.405293812001179,-0.09867858218797873
4162.109375,2.5842469274602764,1.5970652834919816,9.615168936503848,11.055380755059195,-1.5942276401894566,0.2344629002316817
4171.875,2.3565220592257377,1.6654250708324287,9.461729732097632,12.200254569731712,3.1856674070124544,0.9631971730171908
4181.640625,2.141669989400508,1.700006645467682,9.40509417814601,13.185213933048367,5.076022648760971,1.073276471631338
4191.40625,1.9509958110045045,1.675801145818533,9.385295386164746,13.510239972813046,4.987500112777135,1.2930211091290291
4201.171875,1.9276845825952509,1.6172739270952634,9.435124926191733,13.593549936727474,1.173322686760915,1.9376224198651848
4210.9375,1.987550584967436,1.6536725985063006,9.469344211029322,13.47203343682077,-3.1490578236507263,2.084204558325885
4220.703125,2.036833952411112,1.716525047679367,9.635776193492166,13.683424515951138,-6.909581606247275,1.7014062453826162
4230.46875,2.19264385144014,1.7424305600231371,9.74057562020447,14.217957262481251,-9.006419942795645,1.3499153334439156
4240.234375,2.335942181105565,1.8028367431635108,9.784694301032694,14.22747920786209,-11.189152858647077,0.7648308553865317
4250.0,2.204264962537108,1.944244210788501,9.712210539425056,14.77218425548614,-11.051465842223012,-0.10670896330006492
4259.765625,2.252674528386812,2.160110961535528,9.791262362490713,15.046267848315265,-13.118696977013187,-0.3693719709336389
4269.53125,2.1210282436390147,2.146818392039934,9.721871982949072,14.62167534293252,-18.019211613392176,0.21518994275238332
4279.296875,1.6541411068447858,2.3678060232133813,9.461729732097632,13.971737010562627,-25.312685955932054,-0.21292461629720505
4289.0625,1.904005473938815,2.796106185972868,9.448166441500565,13.271057454060607,-40.958980462560035,-1.1033245401345737
4298.828125,2.6672195191204264,2.7153914191932342,9.579094769185538,13.308227583811055,-51.41391565508952,-1.998148613514087
4308.59375,2.893724579939357,2.120782493212048,9.610553232030947,15.388101327818038,-48.569462562739595,-1.5434413919087455
4318.359375,3.084325939146781,1.906747116388801,9.62307010515435,17.971188755334452,-41.90260918660906,-1.4975733520273578
4328.125,3.2999637681533365,2.159451345830482,9.758281577238396,19.62042213161164,-35.96164673018343,-1.0630904514421782
4337.890625,3.313542367981392,2.2104180692961157,9.925665369567703,21.621727168467174,-26.933309766449074,-0.7788588642746905
4347.65625,3.07563892530804,2.091754041092269,9.944844911756332,23.623488707130647,-14.819155432051568,-0.4489770963122021
4357.421875,2.859775987534272,2.3624091179256874,9.787122562951042,24.77629059946321,-6.554065127459322,-0.4647140736647705
4367.1875,2.7874997892830566,2.455951959518494,9.70235988068662,25.123930741996197,-5.084322287362311,-1.0581171916180678
4376.953125,2.8811559019837674,2.4408832325389618,9.5441616269481,24.705032039332647,-9.133065081222107,-1.4414540221540104
4386.71875,3.0714640922847325,2.4881662798075603,9.527361609425624,24.334421928206755,-12.505701361691813,-1.607768747349127
4396.484375,3.2018848644915168,2.6061506813639865,9.474200734866024,23.684805199729706,-14.50519387568599,-2.00372291711475
4406.25,3.2372426802094303,2.545913931847432,9.438553735228744,23.618507137899265,-15.810585448953445,-2.4844130355928584
4416.015625,3.2723549175142077,2.508995549314129,9.378348894277892,24.04041502009169,-15.893205148089073,-3.3374372683096944
4425.78125,3.3072239559305148,2.483495530908649,9.293824164480084,24.450938729662944,-13.68534083100348,-3.7915997470035454
4435.546875,3.3180426511734957,2.4813233975850864,9.185217498301938,25.04695211836456,-9.563877150551818,-4.144142506357465
4445.3125,3.1496079116729616,2.4539777281078283,9.008410214915227,25.688380891183357,-4.2053874396659845,-4.566983902417546
4455.078125,3.1006691166023272,2.47514775701418,8.876435469756585,26.287646240991613,-1.0046799989351531,-4.594330551108313
4464.84375,3.147069790254361,2.496520532889675,8.754598073055194,26.164836768443035,-2.6971996145341914,-4.577045676834702
4474.609375,3.300948375323629,2.54237294112345,8.666266103791541,25.259009213317817,-8.985435383243988,-4.460339237011758
4484.375,4.519082927753388,2.5619753793163,9.051149918195957,27.20832301782329,0.2401109989400463,-4.763393836426335
4494.140625,3.717382794649085,2.6847655892981708,8.643041369670453,24.27991860400831,-7.831203084021735,-5.520822151052488
4503.90625,3.3963701813335403,2.7332165531432717,8.684637180973116,24.546203122934624,3.6094530493858175,-5.026113532825856
4513.671875,3.121295639139752,2.7068769925652183,8.558135342546624,24.34927610663413,9.79706626678569,-6.271466969177348
4523.4375,3.0025054961285997,2.7431062303524363,8.583882946193272,23.8587163184088,10.3730133295082,-6.1345172751852175
4533.203125,2.882884382967465,2.718149718315884,8.526533534841803,22.555453968592413,6.400993617016453,-5.792035884801644
4542.96875,2.942767042012314,2.671248369738914,8.562418486945699,21.360916414432452,3.0419829949247807,-5.338028041766441
4552.734375,2.9897721435985227,2.681925239577997,8.501023883661771,19.953648822539805,-0.5985766312864862,-4.635117746020038
4562.5,3.1208021027888138,2.765413729387153,8.508781707452867,19.092316058046702,-2.581021572270984,-4.680769291409696
4572.265625,3.157344979128415,2.8027851963520685,8.591640769984368,17.98539813778538,-3.5162085005516235,-4.688472155359579
4582.03125,3.0974718381822313,2.80208653350732,8.556707627746931,17.09169840874059,-3.542885104650908,-4.896262123635528
4591.796875,3.03795516723242,2.8259103344648397,8.557421485146778,16.58212119157886,-2.3912896913279016,-5.123776307141089
4601.5625,3.02533270628558,2.812570174475922,8.485651580938988,15.783261920218266,-3.1191909948080916,-5.0711946038464415
4611.328125,3.02605516437699,2.8140150906587427,8.557897390080008,14.6301994071505,-5.480080939811972,-5.081519700015692
4621.09375,3.037480667078812,2.7892470484433383,8.509971469785944,13.524320765752366,-7.776786716409464,-4.985294677646189
4630.859375,3.120681693106913,2.765172910023349,8.496740739262696,12.897013701662047,-8.406550739565768,-4.6875614248791795
4640.625,3.2042344300820536,2.7894212411164894,8.5186811034435,12.60597568799857,-9.175839769476774,-4.583061484540295
4650.390625,3.3359916064130877,2.850554641397605,8.599160641308847,12.097747819873971,-10.935959039076538,-4.675640764332614
4660.15625,3.4197827832273666,2.8871846140737816,8.644944989403376,11.43347660747909,-12.699954184775144,-4.999764309738909
4669.921875,3.479287556553848,2.9228608273934085,8.643041369670453,11.658794989005614,-9.226075489865536,-5.527111399208338
4679.6875,3.4195229276662342,2.981902998189612,8.618959433290112,12.65339107766122,-2.423583908097996,-5.9906385828405675
4689.453125,3.287260317360932,3.0388063490075776,8.487936497997932,13.215694969245114,2.6969280166565084,-6.639573021683622
4699.21875,3.180136496415404,3.0507491833069977,8.489840117730854,13.626256263079872,4.716889808335324,-7.089977074026705
4708.984375,3.0725334162669347,3.049828737295775,8.44381781716971,13.7004331741025,3.6186250388357335,-7.358681052471272
4718.75,3.0363398713497083,3.072679742699418,8.395891896875645,13.685954083414384,2.9772439552330017,-7.269311105141683
4728.515625,3.0841759430858984,3.144542362362272,8.417594308589832,13.842811421937686,1.2121690602807242,-6.956367414225501
4738.28125,3.1322480751365585,3.2406866264635936,8.46290275175113,13.947439936383796,-2.2353412389954905,-7.254469082604718
4748.046875,3.2397164684551285,3.312766270243591,8.495456369322412,15.320867812061696,-6.147156980607282,-8.26679296754331
4757.8125,3.311239274794274,3.3724785495885485,8.504879860379814,16.94298762674997,-3.6324585847097586,-9.006387209707016
4767.578125,3.2766062966924374,3.4222602124324943,8.613010621624731,18.776892160966515,0.05555135010726785,-10.08941572502438
4777.34375,3.1451865541604467,3.480849298797084,8.566274463663742,20.44552570511064,5.217938746577925,-10.789474070027692
4787.109375,3.0378195343264487,3.5042104972243275,8.543858194549706,21.211517330347863,7.337281242017162,-11.054262353377354
4796.875,2.930214074653315,3.5151900540685337,8.49759794152195,21.820285833405194,8.449207029599947,-11.668572693300893
4806.640625,2.869856915454858,3.5254281166240014,8.414262974057218,22.282218771669324,9.535233384103584,-11.593649351131024
4816.40625,2.7383215222902977,3.5599763779139284,8.35596175283929,22.96433076711295,9.704380803660186,-11.022726516991028
4826.171875,2.6416527880173786,3.580924623653805,8.212897849356937,23.29398619473359,6.4098839885651335,-10.340043093897586
4835.9375,2.5573609362781644,3.6385313963658517,8.117046008768806,22.96296343000319,1.0261251283681505,-9.622181211825612
4845.703125,2.593415035316159,3.710639594441843,8.15102734113978,22.65957230564911,-6.4121549888876395,-9.21571332440502
4855.46875,2.7486228859356787,3.7353410099665965,8.195621926901232,22.922792193929425,-12.625338063521033,-9.027467770778015
4865.234375,2.8569293879782283,3.8329063950040765,8.311986416870475,23.71993677453807,-14.827907830276676,-9.251518549268717
4875.0,3.0115280516142406,3.892103722276101,8.29566230428123,25.62071555214006,-11.948254840841987,-9.796238790606543
4884.765625,3.0348487981221592,3.9030309295776515,8.246784574120703,27.796597635904554,-7.0314358086986575,-10.501650706239989
4894.53125,2.9627072867008417,3.925414573401684,8.175490574846142,29.879774085621072,-3.65086002433082,-11.253951929822817
4904.296875,2.8423446792509686,3.9942131680257473,8.04399173462073,31.382946359751344,-1.430888758501026,-11.59006809865578
4914.0625,2.8661423054371618,4.029903658493372,8.042801972287654,32.51431621675828,-3.524460429762956,-12.21172959242734
4923.828125,2.8655331184536545,4.064399570240644,7.981883273936957,33.14567357609846,-5.506110698459112,-12.104433320208482
4933.59375,2.912287882577396,4.122194812773839,7.895454924406228,33.975447327219854,-4.840378179247663,-12.140125079707264
4943.359375,2.971436185907504,4.1333485622911965,7.857904305036027,35.05484960240278,-3.19745965149992,-11.809428691314073
4953.125,2.9232317465516098,4.09646349310322,7.799365131351482,36.20924267237592,-3.65433312671542,-11.666047904606964
4962.890625,2.8877440030531303,4.204059434677689,7.8220193529321325,36.7806085747155,-7.796399189735108,-11.408781267881455
4972.65625,2.9230827825737147,4.239022708004572,7.78446873356193,37.23395324159888,-11.496156579744106,-10.65540604764557
4982.421875,3.03079675430542,4.287783984801316,7.8415801924467825,37.84012039089462,-12.89302021659747,-9.992572747587326
4992.1875,3.1144746600117954,4.2884731295474,7.876037429750983,38.73382000945397,-12.098920074910714,-9.784793827855099
5001.953125,3.1044702782461333,4.435131032682743,8.066075443660942,39.21312403795844,-11.026383416551829,-9.510040477792446
5011.71875,3.1311363210759717,4.583701213580515,8.351727345692414,38.07923220193218,-13.19534328239228,-9.140576885952463
5021.484375,3.0265292058270488,4.660201268796953,8.605301535085834,35.48811591962585,-19.00920082689105,-8.452051388683097
5031.25,3.1479683618400385,4.629270057013411,8.844455231622932,31.330178950541463,-25.66788206321813,-6.105855906653535
5041.015625,3.327110905000316,4.606602762381584,8.901566690507785,27.17443856164897,-28.73781382167984,-3.5400024054345764
5050.78125,3.6001289645031105,4.676448405196698,8.82242025983492,23.6966376136084,-27.64907712357297,-0.8204815292452173
5060.546875,3.8273579168620455,4.6785253575336165,8.926267876680761,19.052895273401038,-29.717323394663854,0.6008263408726859
5070.3125,3.980634453521805,4.723173668948372,8.777731066466261,15.314821528597054,-30.07071292717839,1.8895317989829128
5080.078125,4.123463042082953,4.7231165603563845,8.774875636866879,12.34081443086533,-27.116414450618482,2.7209511572474034
5089.84375,4.180923230341772,4.742798841635924,8.568513510367675,11.133798965507872,-18.11556805038365,3.464446896675021
5099.609375,4.082939507666598,4.7134980629522465,8.293950766659911,11.362840696660712,-7.1829561803389375,3.3094347698371887
5109.375,3.912814273570109,4.706580928092599,7.94809402367759,11.757660915928755,-1.028829402526824,2.822202276964425
5119.140625,3.7561615067677683,4.678989680202205,7.759007819634094,11.783029319768536,-0.2038824172894026,2.2844846286600378
5128.90625,3.6950890280519006,4.652082818008563,7.604140900428189,12.288140345672488,-1.2660184410263051,2.0653796863876805
5138.671875,3.7295873193238394,4.673460352933391,7.48254145619341,12.842137626881065,-0.8057121261603309,2.1230632261539797
5148.4375,3.740401255517487,4.6950882253206885,7.373458885082033,14.036221700769598,0.21924611907176253,1.6237073559759538
5158.203125,3.7271672280624735,4.728143979934472,7.240532330056928,15.381839079363212,1.5567592429633763,0.9048917948914198
5167.96875,3.6546621080707857,4.761705168522524,7.132877473745243,17.266295441653938,3.0414074488742626,0.2652090385678885
5177.734375,3.6296413488682457,4.818806507260302,7.011753934443695,18.782701698043336,2.158354235661168,-0.2847879204935262
5187.5,3.6184447679068974,4.903556202480462,7.082572028785025,20.19018304082726,-0.6378318785449233,-0.9663231271128536
5197.265625,3.5949964731430786,4.928088184381397,7.118694933355536,21.549898287313496,-2.8879836301147517,-1.8126309150767168
5207.03125,3.6198754069417216,4.9778460519786805,7.225635932267376,22.931550708544226,-3.4398872557377627,-2.0025002447323184
5216.796875,3.5854832482036882,5.028109353550233,7.357848629892633,23.971995284230854,-3.7006369864137487,-2.4930157736870853
5226.5625,3.5509659207344217,5.101931841468842,7.477544454394488,24.40070721031742,-3.290871680307917,-2.6656356169900537
5236.328125,3.468964232476005,5.152214179237723,7.61070896188621,24.506706114070877,-3.6203181682944385,-2.8266983546345066
5246.09375,3.4577795491379866,5.177463860180736,7.682716818560616,24.046475669927183,-4.0155098901890565,-2.7313722847607504
5255.859375,3.4699108532585554,5.237440754136158,7.705371040141263,23.188416680209,-6.2608973397942025,-2.4496463526596948
5265.625,3.56619932228844,5.310970073148308,7.810408419320183,21.717526585066647,-8.479009185169021,-1.9598703173171184
5275.390625,3.662494929892323,5.3487993835941685,7.916159655898943,20.107084800636514,-10.918977025036853,-1.589752065480628
5285.15625,3.745320449726721,5.395402804215348,7.865378306005495,19.308635271725358,-9.86102987627036,-1.496196117242002
5294.921875,3.757456512896622,5.431579692459911,7.8885084325193775,18.295906238095316,-7.473040859293616,-1.3086844149117025
5304.6875,3.732936428619019,5.394444285809467,7.817452385711431,17.71045879088552,-4.426143865256792,-1.4368265225160703
5314.453125,3.6725768898958964,5.416582351220363,7.7338794657800864,17.142154238254825,-3.3193570214900223,-1.3879581883532957
5324.21875,3.6118585016517337,5.42609795568442,7.6144215937448445,16.650179880958405,-3.339983544320227,-1.3924654014696558
5333.984375,3.694077214027292,5.4952972851974415,7.502959497967312,16.280714653558807,-2.467140861059575,-1.4442917540346314
5343.75,3.740952387832934,5.553333347094441,7.4285721166267535,16.560418827923332,-1.1927515906446542,-1.1448966081287324
5353.515625,3.7040292462502986,5.61043944488155,7.307686529791821,16.895085166990658,0.5455095192567588,-1.4984010565066397
5363.28125,3.655678222441177,5.704213587739495,7.2344889107843375,17.79686968527887,2.5070306539639993,-2.019411180030172
5373.046875,3.5478319434042387,5.714711505856098,7.1641467213762375,18.57782262210045,3.623762027873116,-2.3253473210849243
5382.8125,3.4283169627770094,5.761395830315924,7.117410563415251,19.69732306405345,4.712901584161688,-2.596671304110184
5392.578125,3.439969007694637,5.808509443960704,7.092138864701832,20.42715189666585,4.759119898730562,-3.40318081765826
5402.34375,3.4043703726129215,5.868264554749652,7.103703927958772,21.239745610886388,4.483170943268968,-3.6195972511000734
5412.109375,3.3328285300764464,5.903752298248131,7.0923768171684465,22.113727111474038,3.221044942449661,-3.8463511123968304
5421.875,3.273677847221672,5.904498551586203,7.129689484072036,22.941175759017767,1.7074518165230166,-4.114553229660529
5431.640625,3.2026390591347997,5.833849546841027,7.1686678182419294,23.673959121136146,1.5530520132539185,-4.625609792611999
5441.40625,3.1665825805721384,5.7736413516204665,7.134448533404341,24.411994149111376,1.9834395561650868,-4.611499769877586
5451.171875,3.202402998820329,5.809567902402563,7.14506178679482,25.070801049612488,1.9251577202260963,-4.833807413847048
5460.9375,3.1544274812049085,5.832664486219341,7.109414787157539,25.194315116616405,0.8619285220355131,-4.780632842587429
5470.703125,3.213561507387019,5.915218252869276,7.070436452987647,25.40820960360521,-0.07695953593019997,-4.913090369687061
5480.46875,3.2371135551600765,5.974227110320152,7.0446888493409965,25.468523879838447,-1.06422082652312,-5.0307788109288225
5490.234375,3.2607883921397014,6.021576784279403,7.031220166351138,25.698853645414484,-1.9392352147728364,-5.056987495446718
5500.0,3.3085135722926537,6.045598573156737,7.041833419741615,25.8196352250152,-1.6113322910198116,-5.277061664506139
5509.765625,3.3201727557842804,6.057012178235228,7.017275578428045,26.04737970822012,-1.831166115169134,-5.561798586135888
5519.53125,3.283991108490385,6.020363169361722,6.9705394204670545,26.21500410055325,-2.0345683633272245,-5.709428530378231
5529.296875,3.2835166083367766,5.983699883340218,6.923089405106221,26.49124691028164,-1.8599945700201717,-5.7561698480857375
5539.0625,3.2588689758032725,5.9820236658922585,6.839278532708257,26.703329171896005,-2.1742446905709967,-6.069849912629128
5548.828125,3.3537196672243352,6.016963143972481,6.8005381510049805,26.595922073600818,-3.2401124132924517,-6.049606629157653
5558.59375,3.4490472383236717,6.076665905218773,6.809485737129152,26.734506741501345,-3.5517311526871835,-6.026650984377867
5568.359375,3.532715625931383,6.124955061386576,6.842991164566895,26.50418972498402,-4.2741980147479985,-5.999167393988942
5578.125,3.5923289113164345,6.220372108347155,6.851938750691067,26.367079245057234,-4.430941559282088,-5.87470424139446
5587.890625,3.6157653084569215,6.255340140723368,6.814626083787481,26.30625780223752,-2.4418432508726013,-5.807732458800664
5597.65625,3.6400493324200536,6.268193902935346,6.862076099148314,26.658742558258144,0.8808740897239712,-5.916674227991039
5607.421875,3.4846030419613983,6.2311108458275575,6.793637529473138,26.523115330914663,2.5110632426717703,-5.643885817065763
5617.1875,3.413321054986056,6.171880205210207,6.808295974796074,26.15922425714827,3.1232867999586458,-5.138296806311125
5626.953125,3.437132958320245,6.1361706785452546,6.80853392726269,25.580640914677023,2.5279387794055186,-4.580028440060972
5636.71875,3.4368992775304408,6.099989031251358,6.7851658482821975,24.743211019378855,0.8518353815419388,-3.7726720820996267
5646.484375,3.508311192286348,6.111860479810794,6.7835001810158895,24.138248403373137,-0.8827147451617804,-2.7777730370139535
5656.25,3.5439026887940672,6.0878053775881344,6.771221260359104,23.87025574780045,-1.6597624606885817,-1.906016303737672
5666.015625,3.603055751173507,6.075159121394633,6.734146545922132,23.509309807474136,-1.2011813898879835,-1.1059139489741248
5675.78125,3.5906669710164723,6.0980006086996115,6.685744720694835,23.3455787778366,-0.5239956316250374,-0.5689477351719554
5685.546875,3.5664962181612427,6.1210876744177245,6.649621816124325,23.287483447890722,0.8727111799961074,-0.2293646651946346
5695.3125,3.5182822607066853,6.1318026166514645,6.590130832573318,23.37094286497568,2.4463119530525264,0.4301819625948413
5705.078125,3.3990080994432597,6.178968579838901,6.567476610992672,23.370617245177392,3.3073769689904684,0.397619982765216
5714.84375,3.3271002688117477,6.2375338709568275,6.519550690698606,23.08210176296041,2.9635017882445007,0.7543730677542846
5724.609375,3.35053428642757,6.284401906188473,6.482000071328403,22.65562455375643,2.1174657466599336,1.1504645993160219
5734.375,3.362538042292237,6.37983798934638,6.491899467319037,21.812648693022684,0.5610545807150468,1.4032244137208338
5744.140625,3.457147914349497,6.414295828698993,6.4290771492354155,21.015523236002114,0.3674024720048927,1.6291875510180829
5753.90625,3.4451203632381673,6.437859774095383,6.416798228578631,20.642702801256682,1.9103098022675455,1.2418404638690563
5763.671875,3.349778514990833,6.4495570299816665,6.406422927654767,20.31848404975936,3.3308928051179345,1.1028246531068913
5773.4375,3.2540635400744637,6.5200318420536885,6.358734959827317,19.689102112391797,1.5713902468740912,1.1930705781496262
5783.203125,3.15931660166264,6.568633203325279,6.407850642454458,18.92107319814085,-1.865593309059464,1.2541299601257878
5792.96875,3.1720547132420487,6.60601418838886,6.4911856099191905,18.245950367343248,-4.768480419387008,1.38212359058878
5802.734375,3.2435870376798586,6.6181264563120985,6.501560910843053,17.90951867274542,-5.3495582110445365,1.5590924859176702
5812.5,3.315126500691667,6.5945387156690485,6.512650069166763,17.924094745628828,-4.42616844715518,1.4794207581171834
5822.265625,3.338695205137388,6.570247553131917,6.488568132786423,18.320380419717363,-3.2979695474450077,1.138733747293313
5832.03125,3.32594995498398,6.568566576634628,6.404519307921845,18.533188647513587,-2.640460600335397,0.8976503009358315
5841.796875,3.443531242126783,6.5537291509202324,6.257886117440264,17.99204615293623,-2.774260521217642,0.5881664081500342
5851.5625,3.5275489611568687,6.662240779456593,6.326324687115442,17.77091886650122,-2.4848075828617446,-0.002656009371004464
5861.328125,3.5628782225787874,6.744804064205193,6.287822257878778,17.704742401099995,-0.5637646757638841,-0.4711864849277101
5871.09375,3.538818361306796,6.815731960708829,6.262788511631977,17.194197941580132,1.589203078846315,-0.7954249042470145
5880.859375,3.4908380846420433,6.862628550236468,6.2266656070614665,16.74049677662062,3.2369167722823584,-1.5844499320966188
5890.625,3.37156868242795,6.885994507713042,6.204487290414049,16.310307309567474,4.846019369064186,-1.559584185451253
5900.390625,3.2642040421186183,6.897455703284855,6.18230897376663,15.679297494179306,5.856994815335113,-1.6321260624692036
5910.15625,3.1564829318129144,6.8843944350544,6.124483657481933,14.88082324054879,4.737939701610385,-1.541042586166597
5919.921875,3.156124082291876,6.87177197410756,6.088598705378036,14.051594129791956,3.649891176763058,-1.4508867902128018
5929.6875,3.1918312294321627,6.871757696959564,6.0878848479781915,13.037726365994091,2.528507680029114,-1.3772481046645677
5939.453125,3.1438533322920765,6.906754283631772,6.051999895874295,12.80503682362799,2.9312874799385553,-1.5870170991539019
5949.21875,3.0361298424617056,6.905593018256744,5.993936627122982,12.712227611884488,3.4466232522066385,-1.6442641766553492
5958.984375,3.0120794992883786,6.928920903338662,5.9698546907426415,12.19011831683875,1.891458724216934,-1.5877071324202456
5968.75,2.9767359607184627,6.91775763572264,6.006929405179613,12.080986910754854,-0.5230573622137209,-1.7398946278199559
5978.515625,3.0480227067431365,6.953188270629132,5.992746864789903,12.064310908418527,-2.4509173109194333,-1.8702158453109232
5988.28125,3.1676390608549387,7.0019447883765435,6.0496203712081424,11.77143896619777,-4.020805672103203,-1.9491087606996391
5998.046875,3.251194177354746,7.014293116614254,6.071798687855559,11.981971981796816,-4.258311995499118,-2.4177134267751166
6007.8125,3.2752326229047424,7.050465245809484,6.094690861902825,11.884261448714113,-3.0118263228580218,-2.9650926381968032
6017.578125,3.2513050689379828,7.062133947399776,6.082887846179269,12.29365225021971,-1.2749574567010378,-3.5325459234558068
6027.34375,3.2389091502069496,7.1206754432710415,6.033772163552128,12.583031397099305,0.11912440280131464,-3.8029325421831928
6037.109375,3.167480578778378,7.192104014699613,6.033772163552128,12.75082782966931,0.5893493217037629,-3.933358462738609
6046.875,3.1558023590894235,7.275890432464559,6.056426385132776,12.36538762042502,-0.13606406339714527,-4.0454039836321005
6056.640625,3.143890458610662,7.32349520293561,6.05571252773293,12.319665408641296,-0.6059763405967656,-4.005788113580179
6066.40625,3.2268459062256274,7.322739431498872,6.017923955896111,12.059347689377143,-0.4666044401748255,-3.903816765591076
6076.171875,3.3096738055846937,7.357442849264624,5.96738055846928,11.844889769892035,0.9885508861301532,-3.8277024881218416
6085.9375,3.380474153832428,7.41571021242676,5.90455824038566,11.657718857882314,2.879048309192596,-4.09744549539644
6095.703125,3.320355434473108,7.438329916565263,5.845067256834655,11.516868042394176,4.550946759492514,-4.347015898937688
6105.46875,3.2835550820970414,7.48377683086075,5.736460590656508,11.667859728271225,6.037582637591481,-4.620637472647031
6115.234375,3.2240336520978983,7.531400637529129,5.736698543123122,11.452932557919455,6.004401843543843,-4.591448281843829
6125.0,3.187717317974103,7.565910826424397,5.676493702172272,11.250710058115752,5.514490469932107,-4.829071052375767
6134.765625,3.1282101651229572,7.542134615960198,5.678159369438577,10.85020226951137,4.789231619838918,-4.910595493137247
6144.53125,3.1041622014742964,7.553562498186687,5.6543153855248525,10.72419710176598,4.503037993438012,-5.212880138544351
6154.296875,3.079630219573362,7.575927105813391,5.582069576383832,11.058447434339962,4.4867677386605385,-5.607985236258032
6164.0625,3.0791390627470907,7.622563839779894,5.53295389375669,11.195930403908985,4.314991648085684,-5.695199424628145
6173.828125,3.114005721638732,7.608963824229844,5.4481912114922695,11.743280131835935,4.267409306102758,-6.302271213024555
6183.59375,3.054127821643216,7.632065167095956,5.4127821643216025,12.149406775603376,4.685397974353759,-7.1961402720991385
6193.359375,3.0054322254610515,7.641816831874483,5.305127308009917,12.665447609973585,5.138113858235808,-7.8595433838870665
6203.125,2.9217400426066797,7.712527704260977,5.269242355906021,13.568628347142873,4.720465690849273,-8.24093161930261
6212.890625,2.8978101091152535,7.736096408706697,5.257201387715852,14.422625507892304,2.7330897691552503,-8.928840448279644
6222.65625,2.933753316570012,7.760363775997168,5.280093561763116,14.541366776942766,0.9915866386103848,-9.352945672364744
6232.421875,2.9934989092602957,7.7965216280444,5.302271878410533,14.983976121516585,-1.1841661285757419,-9.673102683084485
6242.1875,3.0653924627438105,7.809356354059052,5.348770083904908,15.392121704107751,-2.424279287476909,-10.365077859786071
6251.953125,3.065626143533616,7.8455380013529465,5.372138162885403,15.755189608526125,-2.7554235175359074,-10.95298380534316
6261.71875,3.065031233698105,7.80863389596764,5.312647179334396,16.35004547492817,-2.0493810880915477,-11.421278794654533
6271.484375,3.100726483215062,7.86811963309679,5.310743559601474,16.82397882074134,-0.9666071121247936,-11.683593713721875
6281.25,3.0769217184548707,7.868129151195455,5.311219464534705,17.462751158567464,-0.7321786308086595,-12.372078609049687
6291.015625,3.0295458697242927,7.9043298346866795,5.3355393533816615,18.215074444862186,-0.240085908651908,-12.466421770507171
6300.78125,2.9820519908364784,7.928389695958673,5.3480562265050615,18.750902633143507,-0.3779024582719659,-12.688368507325213
6310.546875,2.9462268135389564,7.916263150887438,5.3369670681813535,19.1992516865726,-0.5744830216285971,-12.434554632517653
6320.3125,2.981818310046674,7.892208048664777,5.324688147524567,19.659801486470663,-1.0090392281041245,-12.49794512695358
6330.078125,3.0410894025833493,7.891702614690509,5.29941644881115,20.170458256839307,-0.6560204085847824,-12.162475622756846
6339.84375,3.029068990046018,7.8795665515206075,5.28785138555421,20.448876164547624,0.14721851872506958,-11.991707142471357
6349.609375,2.9927621740208883,7.866476728994157,5.2285983544698205,20.834917169580848,1.7033091852548718,-11.819582042684136
6359.375,2.9326482137109013,7.865296427421803,5.1695832758520455,20.86938999617306,3.0229645583806244,-11.44685741574576
6369.140625,2.8726570426074822,7.85245694235782,5.122847117891056,21.119068743071388,2.9821903287870777,-11.075446984175704
6378.90625,2.8961053373713006,7.827924960456886,5.0867242133205455,20.834668997109095,2.0003420494891966,-10.30712027371808
6388.671875,2.8843233646731066,7.8281705388700225,5.099003133977331,20.474227201832743,0.7053211086696561,-9.45660341395875
6398.4375,2.8842029549912054,7.827929719506217,5.086962165787161,20.449434648091664,0.06889621754484546,-8.861300755784091
6408.203125,2.8363597446810167,7.791767108409653,5.064545896673128,20.426588665212947,0.4367866190599318,-8.07134101137324
6417.96875,2.859815178018834,7.73153511794243,5.029136849502462,20.726793963038908,-0.1472339139936321,-7.259112535463972
6427.734375,2.871724698972928,7.6958303503268075,5.029612754435694,20.56496922992001,-1.3318659442499878,-6.531516669797394
6437.5,2.8835042921464566,7.707484774769102,5.017095881312292,20.600215334479785,-1.577600272984679,-6.081464246103484
6447.265625,2.8475444280190345,7.766517427466639,4.992538039998721,20.973824154875377,-0.927072336089922,-5.6152785939380365
6457.03125,2.8350399972294302,7.7653180896969545,4.932571151514486,21.580779689821288,-0.130500705785879,-4.87360672886337
6466.796875,2.847058030242096,7.789354155722287,4.94389826230481,21.955274320004087,-0.07422297179696223,-4.3188400979775174
6476.5625,2.894905999601616,7.801716761107992,4.966790436352073,22.037015914315134,-1.4154347251924768,-3.831075747579993
6486.328125,2.9187036257878085,7.837407251575617,4.965600674018996,22.608659682725573,-0.8117228842793497,-3.546022503769366
6496.09375,2.9661737094289613,7.932347418857923,4.950704276229444,22.90565664678145,0.8406402845882798,-3.054627404868123
6505.859375,2.9181981918135405,7.9554440026746995,4.9150572765921625,23.383117129691893,2.6944003182010388,-2.964228614208206
6515.625,2.9297298270492664,8.002316796955675,4.877744609688577,23.812589363716434,4.671104247931894,-3.0608176637141122
6525.390625,2.9413818719668945,8.049430410600456,4.852472910975159,23.905877222392483,5.597128964664736,-2.9557058929589406
6535.15625,2.930062501798977,8.145839289312242,4.9110120846597045,23.84659909300047,5.238529950724702,-2.734402767593692
6544.921875,2.9067322371923945,8.18251209343241,4.95893800495377,23.403088720471395,5.017131489386285,-2.5043485523989624
6554.6875,2.8708927827468753,8.24178556549375,4.946421131830369,22.773309126800488,4.478840454110042,-2.4538682576914965
6564.453125,2.8355516237016247,8.218722295022296,4.983733798733956,22.254320026968237,4.195425600498169,-2.0852916921083797
6574.21875,2.7998587537093345,8.147336555037715,4.985875370933494,21.65437513888033,3.625198623285773,-2.1258988713836606
6583.984375,2.8353369791091496,8.087340624884964,4.962269339486383,20.659102202025267,2.507223111602646,-1.7300565076964631
6593.75,2.859035611335436,8.01569027028992,4.951180181162674,20.000048203245694,1.500259293707186,-1.532458691571748
6603.515625,2.88271758688906,8.02733993568288,4.938425355572658,19.495015588376166,1.403508185259165,-1.3055126458582316
6613.28125,2.906397182918017,8.050889603931273,4.925432577516027,18.617826085474746,2.5997472752372595,-1.3995590159383413
6623.046875,2.8347468283229715,8.0266365137888,4.903254260868608,18.341210565133245,4.288540192214089,-1.3900887595426423
6632.8125,2.7867951059542126,7.930733069051282,4.869986785897481,18.002287217366764,6.195157263902416,-1.4622851810798407
6642.578125,2.715284197238398,7.8115207754291776,4.8617530571731535,17.723931729126754,6.613594536089537,-1.6268117145348178
6652.34375,2.750410711691172,7.703202375763296,4.802975931021996,17.249976348674437,6.407853904197541,-1.3667002593824826
6662.109375,2.809932141690316,7.655578569094918,4.80273797855538,16.800832535065826,5.2097398255520275,-1.6999901521419774
6671.875,2.9291991643797424,7.644112614473772,4.824678342736183,16.185009426357627,4.858112535439637,-1.791140377304112
6681.640625,2.952874001359368,7.691462288433021,4.811209659746321,15.966276368954242,5.4475560805129275,-2.1425398916630467
6691.40625,2.917272986752985,7.763117402077398,4.8225367705366455,16.00756964228738,8.121295834654282,-2.62504960677328
6701.171875,2.7864624312045008,7.787210576694718,4.8367193109263535,16.06481630476782,10.200630850882073,-3.0494994232951167
6710.9375,2.6312569601096487,7.750609158314536,4.792362677631516,15.84739445971087,11.903379926376722,-3.26977770301018
6720.703125,2.5356362201038527,7.952224821160085,4.754098200861469,15.379513914463432,12.001347313437114,-2.4021827273695067
6730.46875,2.4521634408912885,8.130517357973051,4.740153612938377,14.341031901205275,10.8858490050711,-1.7154109555678967
6740.234375,2.416314468347104,8.237390841456111,4.726684929948513,13.257866955026591,7.938919571188612,-0.8850954273949786
6750.0,2.534837617223125,8.331579996351014,4.674237912788758,11.756588228356252,5.454611767150047,-0.3596245125686409
6759.765625,2.6426624805380685,8.428182103933281,4.7424385299973215,10.297498201843007,3.46797080782036,-0.2271206304569955
6769.53125,2.7018012657695114,8.486935864872352,4.703936100760657,9.112059217672241,3.877248368640856,-0.4005348046439474
6779.296875,2.7375012743358,8.522621596290646,4.702508385960964,8.077865613157197,4.5048197610645655,-0.8222011746725415
6789.0625,2.748803987831053,8.509512737566869,4.6423035450101136,7.181502411677752,4.7573637780756615,-1.296338386414061
6798.828125,2.7596298216480326,8.471640595677018,4.534410736231814,6.717068534664523,5.438584380682106,-1.6213556034939909
6808.59375,2.8067719895888055,8.399258264891895,4.486722768404362,6.037172353486291,5.694541025937624,-1.9706970110943192
6818.359375,2.78237469451777,8.350463674749825,4.427945642253204,5.738140569526008,7.313419478316593,-2.6655741004354887
6828.125,2.745831818178169,8.313092207784909,4.345086579721703,5.903276551197878,8.81463001213299,-3.0620451108043008
6837.890625,2.733077049926097,8.359011242709338,4.2600859449906645,6.174874533931381,10.73862372829581,-3.5732691279996085
6847.65625,2.7091399778606733,8.418279955721346,4.247331119400649,6.417179319424474,12.287895924542804,-3.9392548369530527
6857.421875,2.5776045846961133,8.452828217011271,4.18902989818272,6.751338712876207,13.493146977085848,-4.3434538468914825
6867.1875,2.4826334835931485,8.41764791956725,4.215729311695829,6.9366004173161935,11.945278811151669,-4.264631596589748
6876.953125,2.3631518163112464,8.297732204051064,4.172324488267454,7.167828631252706,9.64595650727305,-4.200995445059928
6886.71875,2.3632793645671457,8.262273014848576,4.185079313857469,6.819897763104713,5.795340551141224,-3.636664888606501
6896.484375,2.4346912793230544,8.274144463408014,4.1834136465911635,6.866421662024496,3.0240891572503794,-3.59611204505237
6906.25,2.55431715153352,8.275300969733706,4.241238962875862,6.792658398871329,0.5205790721004735,-3.286043279661885
6916.015625,2.6375015208889585,8.334526851301726,4.2263425650863065,6.746131699385898,1.0052183970128097,-3.3268761797807525
6925.78125,2.626307319452276,8.407376543666457,4.297398611894252,6.991725919763693,2.2132553657196645,-3.363918400263996
6935.546875,2.5788158200891287,8.419536402083018,4.310153437484268,7.205667055625573,3.341759763757885,-3.4917110400563254
6945.3125,2.507647104221689,8.396246589395759,4.3361389935975305,7.1445265885077855,3.858335387775112,-3.4566416872691974
6955.078125,2.51968655295635,8.313182629722222,4.349607676587393,6.669885847673637,3.2446981566194717,-3.2650662702998248
6964.84375,2.5564845258077504,8.279635718282169,4.457976390298925,6.2077150967115005,1.8138740545171592,-3.3637708822704675
6974.609375,2.5453188786670617,8.209685376381742,4.531887866706253,5.8714336286822695,1.2486096988199866,-3.1717793300822152
6984.375,2.5934171854890504,8.17492960907334,4.579813787000318,5.5333744980055855,0.3683157613273529,-3.1575540426391293
6994.140625,2.60605868263322,8.093069746218822,4.653487310941032,5.346670257267754,-0.07430983941103284,-3.3806299227249914
7003.90625,2.653689627875598,7.985950684322624,4.654677073274108,4.993800041575301,0.06382078058680868,-3.3102341207174555
7013.671875,2.630711074216056,8.070945957955919,4.737774088272223,4.7164239923249545,1.7205221491135525,-3.3768167552062613
7023.4375,2.4881209254940435,8.083384708130945,4.764473501785332,4.363193483621783,4.426808841847153,-3.342450254270664
7033.203125,2.3092263402715685,8.070833632924089,4.732157836680666,3.954979107032953,5.243986426406613,-2.657354477335103
7042.96875,2.2732807532921444,8.058466268489049,4.709027710166787,2.869178766131804,3.20277425716689,-2.0905784214084
7052.734375,2.3328821410538647,8.213383329726774,4.71678553395788,1.6310217302066787,2.6649336116704627,-1.3866817064650847
7062.5,2.344281468984358,8.319515318921095,4.666242136531048,0.451460484828251,2.829560374653996,-0.9723220014178034
7072.265625,2.343048817869348,8.459907159548216,4.542977025029963,0.28443342480578376,6.181569060787284,-0.7649588261087921
7082.03125,2.341603901686527,8.457017327182575,4.39848540674792,0.1580835136740366,9.152662325790113,-1.101717810152068
7091.796875,2.2568518269417006,8.406560796740543,4.256611265598645,0.2781325315926681,10.842393882212908,-1.395048147420356
7101.5625,2.2084113272713366,8.345394083114101,4.17446606046699,0.4269118666825916,9.585996538953447,-1.8899047998423044
7111.328125,2.184986827754179,8.25092603646074,4.212968489703654,0.2075879619833277,5.460669483308807,-2.300389043788674
7121.09375,2.2447229023457984,8.334683899929693,4.234194996484611,-0.0370103858969516,0.04063912890980016,-2.16375957355373
7130.859375,2.3281623682130372,8.322991403092738,4.2448082498750885,0.11700841841830645,-2.8706073057962067,-2.1346693034422244
7140.625,2.4466974147123888,8.357680543710492,4.19355099504841,0.424578692864312,-1.7554359258825782,-2.1232221816702697
7150.390625,2.528653892002148,8.53349826019477,4.055865390691002,1.146922979595049,1.0237328274445785,-2.1409072672437386
7160.15625,2.5758617405575013,8.735056814448335,4.01474548432157,1.7467046710847816,4.710474694182086,-2.1166197477862907
7169.921875,2.5038263616700887,8.82908129476875,3.9540647384374887,2.2366128882572136,8.158928276097866,-2.318726547068833
7179.6875,2.419527371356876,8.922388076047085,3.8574990404495115,2.2657275602459617,9.426186791695892,-2.4818173804768566
7189.453125,2.371421925960889,8.992843851921778,3.8088592627556,1.9623948394547304,9.364629718420726,-2.069509136771413
7199.21875,2.336663779127819,9.066184701112777,3.9044731508771164,1.7005561728583256,8.672394984355023,-2.119632522007597
7208.984375,2.206091663418472,9.102659517313137,3.942499675180549,1.4256998544888346,8.4678981330683,-1.934242068410956
7218.75,2.0631474242247543,9.078675800830457,3.933790041522992,0.905374375649032,7.963869636893728,-1.6993034035826111
7228.515625,2.0276929940716006,9.019671702428916,3.959775597636255,0.7242852258007388,5.5222167658159504,-1.3608701947147532
7238.28125,2.075555240579118,8.960634290682043,3.9840954864832114,0.063331746973631,2.508635960934652,-1.3532203833440488
7248.046875,2.0877032013723493,8.937311164649461,4.008415375330166,-0.2925490431637385,0.8269678741182257,-1.5838820258281123
7257.8125,2.075933126297486,8.878056728785447,4.021884058320028,-0.1838114984486118,-0.15750428579223136,-1.4710806673054513
7267.578125,2.0879678159828137,8.81879277482277,4.03487683637666,-0.2793245674559228,-1.4616574359854997,-1.7987134711879782
7277.34375,2.1596395862998548,8.735945839266376,4.059196725223615,-0.4503351558981754,-2.733875715748834,-1.9897031378575019
7287.109375,2.172269185820693,8.713585990689008,4.131680486831252,-0.7408380357484222,-3.111081582356553,-1.831689816195016
7296.875,2.160390598687259,8.594590721184042,4.13429796396402,-0.8462954311592865,-3.1882925562220095,-1.6164762442914469
7306.640625,2.1729164451988585,8.48869003325486,4.196406424647793,-0.9495025600632055,-3.0126434468982235,-1.1762360216933423
7316.40625,2.2091266467887483,8.38253900786321,4.245998012208166,-0.9182782310993542,-3.090160990597946,-1.1283611575910593
7326.171875,2.2449613421849355,8.347065541512729,4.258038980398337,-0.4669247567838287,-2.2030492971599824,-0.5741051941399761
7335.9375,2.245332089329305,8.300187988182419,4.295113694835308,-0.15737334874847533,-1.0232301438168054,-0.3645447134332345
7345.703125,2.209622562664352,8.312102268185846,4.2955895997685385,0.08880298577194166,0.34201183143486363,-0.34337551965441343
7355.46875,2.1737878672681643,8.34757573453633,4.283548631578368,0.3536618438500139,1.2722225657882014,0.008767013748502986
7365.234375,2.1972266439333192,8.370643764057112,4.2464739171413965,0.7671747561396506,1.5723777082380068,-0.14647519310643112
7375.0,2.1972123667853216,8.44204378118969,4.245046202341705,0.4767970466823256,1.3362536278618289,0.02405516784823699
7384.765625,2.220993336298852,8.56103429164532,4.242190772742322,0.5835126310372006,1.2581183012999688,-0.06533950965427768
7394.53125,2.2090838153447576,8.596739059260942,4.241714867809091,0.5988336832050973,1.5244687949714348,-0.07051330900602802
7404.296875,2.1847902732829603,8.631485308470683,4.193313042581795,0.6620460020636043,1.3858667122381787,0.10160251227893996
7414.0625,2.232029055658974,8.678343825603662,4.155286518278362,0.6178636402293245,0.8861862692353435,0.2952033772752551
7423.828125,2.2680950523203003,8.690952009402505,4.190457612982412,0.4204077848205857,0.33844237795821713,0.5342450462399617
7433.59375,2.2676134135926937,8.689988731947293,4.1422937402217315,0.3898376065044113,0.21301842117309566,0.5517852469053859
7443.359375,2.2676134135926937,8.689988731947293,4.1422937402217315,0.19090745263649267,0.9010603514122604,0.6433970699521074
7453.125,2.2434545583607948,8.653575783388257,4.107360597984297,0.37503904957647743,1.168808803527978,0.609208570253426
7462.890625,2.254998091219852,8.640948563392083,4.071237693413786,0.5749550169634129,0.9202903444731692,0.6161780991083916
7472.65625,2.314387213913763,8.652583951637048,4.057769010423924,0.5891306329778223,0.7782795623516177,0.4964606844078992
7482.421875,2.3262800781951936,8.700179204009434,4.0565792480908485,0.529044994347588,0.6224671567199708,0.6370128859501808
7492.1875,2.3025885845429057,8.736129550038191,4.068382263814404,0.6331659002654675,1.246488025610199,0.2881503647481194
7501.953125,2.219274287406902,8.724262860528087,4.070285883547325,0.926551273116624,1.783222281409604,0.4183863431765938
7511.71875,2.2667634072453833,8.724003004966955,4.057293105490693,0.5600033224158009,0.3410787594766558,0.6582876604886126
7521.484375,2.195334835816812,8.795431576395528,4.057293105490693,0.02170595754671876,-0.9801373219820632,0.6333167385304459
7531.25,2.2667586481960504,8.747803010677815,4.056817200557463,-0.11223421481524136,-0.11566789268069334,1.0748106476073018
7541.015625,2.1832082907455748,8.711654676729246,4.035114788843274,0.4220225823261706,1.4677162365163836,0.6957247967984556
7550.78125,2.2190477451910957,8.652381204667904,4.047631661966675,0.529683374400033,1.2652419127420866,0.70085089119468
7560.546875,2.267023262806516,8.629284620851125,4.0832786616039565,0.283860847875543,-1.1019919725026075,0.7150624970085622
7570.3125,2.3030892594678414,8.641892804649968,4.1184497563080065,-0.19715820283719893,-2.8027290883349223,0.2688069261186945
7580.078125,2.3273732834309744,8.654746566861947,4.16589977166884,-0.20004382786006752,-2.9465989337427105,-0.019755576168163654
7589.84375,2.3157212385133463,8.607632953217168,4.191171470382257,-0.3094573368911469,-2.4169990044475917,-0.20015336628609465
7599.609375,2.3514331447029657,8.583818670358312,4.190933517915642,-0.14067184829473073,-2.2903326957321544,-0.2316736842002061
7609.375,2.3516858616900995,8.524800294808768,4.216205216629059,-0.27714383768363243,-2.5717250218315977,-0.04336147781750499
7619.140625,2.3516882412147657,8.51290029195334,4.216443169095673,-0.24434531701422554,-2.0838311753699457,0.16193255684032415
7628.90625,2.351811030421334,8.501241108461715,4.228722089752459,-0.061177830410419215,-0.8303689257509336,0.03133302352379791
7638.671875,2.327770205346672,8.476968982121912,4.2055919632385805,0.2949878632397799,0.19379521431822694,0.2904850172908185
7648.4375,2.3395521780448654,8.476723403708776,4.193313042581795,0.5109446954179906,0.4472798665756475,0.3642620091318694
7658.203125,2.38727021962382,8.5364452011524,4.203212438572428,0.2954728847016723,0.8364150781638847,0.33898716348005803
7667.96875,2.3513174940703965,8.559777845283648,4.179368454658703,0.3551359213383194,1.571283819446848,0.15617476257904747
7677.734375,2.3156008288314447,8.607392133853365,4.179130502192088,0.3842474613051087,2.85420087882877,-0.007229273024873994
7687.5,2.256084157881633,8.631215934810886,4.179844359591933,0.1801564702171415,2.50335769315462,-0.4317011719830069
7697.265625,2.2322865316954403,8.595525444343261,4.181034121925009,-0.14264715978190948,0.6833965936203769,-0.42920483291807937
7707.03125,2.2921691907402892,8.548624095766291,4.216919074028905,-0.35811539653452,-2.01282088892516,-0.454122282199112
7716.796875,2.3045651094713215,8.490082599895025,4.2660347566560475,-0.3428160475494616,-3.171707663941344,-0.4614663998347045
7726.5625,2.4239501623179844,8.490757467493111,4.299778136560405,-0.696271619891932,-2.4076999691169503,-0.44960626282885024
7736.328125,2.435368526445808,8.501689433843996,4.251138358866494,-0.5760942995584195,-0.5925451702465143,-0.7301063586090588
7746.09375,2.330544387079743,8.458707821778532,4.483010136545727,-1.928853648961429,-3.0335911834809908,-0.7254878784641663
7755.859375,2.434884508193534,8.512626159244213,4.2027365336391975,-2.384248654712493,-3.0636798486992904,-0.14661796932774035
7765.625,2.272734867398551,8.378803068130434,4.654439120807493,-3.6961495294074735,-4.491566209767912,-0.6679890668042379
7775.390625,2.4260233016816413,8.363951365268045,4.507092072926066,-4.770328326931178,-5.408770497280305,-0.4763376892746259
7785.15625,2.3326127673940666,8.355701725264323,4.689848167978158,-5.859311834941297,-6.106290852457486,-0.2278783442450485
7794.921875,2.4397532450122577,8.260458870976898,4.689610215511543,-5.919247688944688,-3.1765956717789026,-0.07234768001828602
7804.6875,2.296329746615599,8.223611874183579,4.6329746615599205,-6.1202060672167775,-1.550899820623344,-0.18355829738853524
7814.453125,2.260270888528271,8.175303681818447,4.598517424255717,-6.595031486861067,-2.008106506116461,-0.010450761433398029
7824.21875,2.272423608370836,8.128180550075003,4.623313218035904,-6.963372870804576,-2.9195633533379106,0.0501072316102462
7833.984375,2.283728701390755,8.103171688495793,4.563346329551668,-7.32990527188104,-3.672576056602881,0.2915635113580325
7843.75,2.3787021820183845,8.126451983084388,4.536884868505174,-7.881129570371836,-4.1927284874282025,0.511178243369999
7853.515625,2.53280730930346,8.244186047178347,4.471207120822172,-7.931646946204468,-2.1616107401449414,0.0712777085310382
7863.28125,2.5923001850066094,8.339362274775123,4.4681137387561725,-8.165250707526285,0.5111932319003613,-0.22991318152922094
7873.046875,2.5320396402433927,8.468841185248689,4.39444021481546,-8.04684198523066,4.266613430386046,-0.6872730810980643
7882.8125,2.400844060402542,8.611211930328894,4.370120325968504,-8.016985686950258,6.4273382947250175,-0.7762012853406899
7892.578125,2.2340831588253005,8.64673774622203,4.360696834911102,-8.198118906076846,5.7397521117967525,-0.4421750043028385
7902.34375,2.1506532110567282,8.610830231637268,4.351035391387084,-8.931881486214008,3.121040743551292,-0.02904024323009842
7912.109375,2.150773620738629,8.611071051001069,4.363076359577255,-9.113098827991744,-0.2134589075615974,0.2965737726934004
7921.875,2.139249124076902,8.528498248153804,4.4011028838806885,-9.413896157792328,-2.2145069195697227,0.9624211154637778
7931.640625,2.198772933600712,8.468974438629994,4.4011028838806885,-9.560033613144997,-3.4299910036957613,1.7214657416111767
7941.40625,2.2706783847075576,8.422309150367496,4.4487908517081385,-9.526824908084402,-4.225942855337303,1.967778215387865
7951.171875,2.3062746402646077,8.374454042433976,4.436987835984583,-9.526070643219477,-4.1625342193194195,2.043204701880574
7960.9375,2.3181794021693696,8.362549280529215,4.436987835984583,-9.38568649900322,-3.5013096458185085,2.2461079782330864
7970.703125,2.329961374867564,8.36230370211608,4.4247089153277965,-9.203019804456536,-2.0447510035381944,2.0654292392041125
7980.46875,2.2938882396322393,8.385395526883524,4.388823963223902,-9.03441295159722,-0.2581241615530919,2.0160453475801203
7990.234375,2.2578127248722484,8.420387354506401,4.352701058653391,-8.755625796754062,0.9996772120191816,2.223738541350358
8000.0,2.2221008186826285,8.444201637365257,4.352939011120006,-8.724323277726674,1.2981196113094735,2.27943241180636
8009.765625,2.1984140840796726,8.456351977683154,4.365217931776792,-8.956583954055274,1.0905259879998015,2.1125500210675496
8019.53125,2.1509178256671926,8.492311841810576,4.377496852433577,-9.077587686244208,0.33953259772861016,2.3104089313056853
8029.296875,2.1158079678870814,8.51733022148845,4.437939645851044,-9.44549707212825,-1.1979562164958506,2.4141667302957512
8039.0625,2.127715109316509,8.493525456728259,4.438177598317659,-9.676533790783518,-2.9234992337848973,2.369680106890562
8048.828125,2.127963067254312,8.458307086889576,4.4629733920978465,-9.997359419215178,-4.663154016105693,2.5699766026943798
8058.59375,2.16390627470907,8.482574454180044,4.48586556614511,-10.028395716376057,-6.292572637027331,2.540904918889669
8068.359375,2.199372602485554,8.48207853830444,4.461069772364922,-10.073557627685434,-7.263093638782319,2.636550836376093
8078.125,2.2477045900973467,8.483504418289929,4.532363771639484,-10.121348669673356,-7.359214463462338,2.4692836860080956
8087.890625,2.2716297645394405,8.483735719555067,4.543928834896422,-9.86149415820282,-7.4833924966297545,2.3209915586573158
8097.65625,2.295692005336098,8.400907820196004,4.569200533609839,-9.92396776182076,-7.9705125965465955,2.222747261429289
8107.421875,2.3434290831123814,8.365429594796193,4.5810035493333965,-10.003771849879007,-7.880280531921893,1.9287335363114269
8117.1875,2.379138609777335,8.353515314792766,4.580527644400165,-10.052517495651797,-7.805086728037781,1.6660060074569985
8126.953125,2.4029433745375264,8.353505796694101,4.580051739466934,-9.948089983038248,-6.41333253720717,1.3478041558217364
8136.71875,2.4390069916741863,8.378013983348373,4.614984881704369,-9.813326972784576,-5.256610680974009,0.9885940359161742
8146.484375,2.4034226337404667,8.366369077004745,4.627977659761,-9.755410389061227,-4.22593342173802,0.6311363436852524
8156.25,2.4156910042156,8.343286770335963,4.664338516798126,-9.729362778398094,-3.7291962872566287,0.16133937771575285
8166.015625,2.380352224695017,8.30832349700908,4.7018891361683295,-9.761137901284975,-3.965469187940702,0.05838512131038144
8175.78125,2.3804869115249154,8.237164299240304,4.71535781915819,-9.85610968292057,-4.141432724811009,-0.21511894540047016
8185.546875,2.36907568597109,8.190532324323135,4.764711454251947,-10.18041893159839,-4.569022564989981,-0.3631844742125033
8195.3125,2.4288355558093717,8.15529015923779,4.788317485699056,-10.166199467276556,-4.930252960086107,-0.4785170581704299
8205.078125,2.4050331705738457,8.143399674481026,4.7890313430989035,-9.906407706730636,-3.9738365799880917,-0.6330842779828819
8214.84375,2.3811079961317527,8.143168373215888,4.777466279841963,-9.614365087416383,-2.8589753415961177,-0.6371236532446954
8224.609375,2.3692056137516566,8.14317313226522,4.777704232308579,-9.534867827024675,-2.1820936529862647,-0.3737926947810736
8234.375,2.3098188705824123,8.119637741164825,4.791410867765054,-9.473414489167306,-1.9622530426309015,-0.3775749736096071
8244.140625,2.2743549223305948,8.108233654184996,4.816444614011858,-9.05559176574696,-2.503477175747229,-0.1018360673940588
8253.90625,2.286254925186024,8.120128897991098,4.815968709078628,-9.283502025144832,-2.98858760622624,0.16632323494056114
8263.671875,2.3101777201034515,8.132260202111663,4.827295819868952,-9.541390952650376,-3.4888926182972533,0.5111737587903615
8273.4375,2.2986341872443945,8.144887422107836,4.8634187244394615,-9.661202268356435,-4.066402889533901,0.8282743173157026
8283.203125,2.3104232985165867,8.10894183512841,4.851853661182521,-9.889822944311808,-4.83414156900537,1.0253919639001794
8292.96875,2.3700579996236337,8.097258856390122,4.862942819506231,-10.239923088337562,-6.2750455963579155,1.3727949325775248
8302.734375,2.4300491707270533,8.110098341454108,4.9096789774672205,-10.530551028095292,-7.560756786784644,1.5183022634915495
8312.5,2.4897971429420025,8.13435619064591,4.932095246581254,-11.173777029091358,-7.768360053650267,1.7614208418250363
8322.265625,2.549658386264856,8.194554867767806,4.9658386264856125,-11.374832279073301,-7.192096420368804,1.6405230534694035
8332.03125,2.526092061343802,8.206946027449508,4.990158515332569,-11.712093628033946,-5.925930722055723,1.7345265125166032
8341.796875,2.47812368230238,8.194342602699997,4.955225373095134,-11.851348106691944,-5.333077763256656,1.6445897919896246
8351.5625,2.5258583805539967,8.170764380155612,4.966790436352073,-12.216800844076062,-5.348899771266747,1.9940124409723043
8361.328125,2.5619267567399886,8.171472561099025,5.002199483522738,-12.817158827606242,-6.154469581766987,1.9120957174697069
8371.09375,2.609909412929408,8.112675968715957,5.038560340559863,-12.925448714152115,-5.874322107779034,1.8440601758729556
8380.859375,2.586595804995488,8.066048752848117,5.0881519281202365,-13.093545820830176,-4.841326823427257,1.9444186856222063
8390.625,2.5509005554785307,8.006563015718967,5.09005554785316,-13.032020556953185,-4.214209182514082,1.9478290087555965
8400.390625,2.503420953738715,7.9592228598583805,5.1040001357762526,-13.075038800987661,-3.632056074839821,2.2578416537323185
8410.15625,2.5390148297710984,7.9232677547802925,5.091959167586081,-13.259461454998956,-3.978407030227945,2.2629244462999685
8419.921875,2.586508708658912,7.899207893508301,5.079442294462679,-13.704740204595034,-3.7943871671260494,2.3161409547935032
8429.6875,2.6339954489727275,7.910848040802598,5.066211563939434,-13.659334106058292,-3.277809042927651,2.2449137600433686
8439.453125,2.6814821892865424,7.922488188096894,5.0529808334161865,-14.05792037997599,-2.8734842501097577,2.3555407879509014
8449.21875,2.6936253910304413,7.922965067775168,5.076824817329912,-13.999033532357984,-2.0924143383573908,2.0951094851859
8458.984375,2.6459002108774894,7.8989432788978355,5.066211563939434,-14.033090352456837,-1.6575383468042566,1.7639855075832958
8468.75,2.6225818438942365,7.8761160687408545,5.115327246566577,-14.2342018683486,-1.5668444630000942,1.6374611282452274
8478.515625,2.5872406848489877,7.853052798269402,5.152639913470162,-14.510579244535785,-1.8355244111869944,1.6707458000728606
8488.28125,2.5399971434236424,7.829994286847283,5.190190532840365,-14.709934911448373,-2.0876146766875534,1.7198063186523962
8498.046875,2.528111417716209,7.746699025908607,5.192094152573287,-14.877152251412275,-3.1523995828487568,1.9081414998176989
8507.8125,2.599757013261922,7.794752121761938,5.213796564287477,-15.062138227434444,-3.7499068074850865,1.8568920912986704
8517.578125,2.6353389916709755,7.8182970309609985,5.200565833764228,-15.057969246806453,-4.654075150363269,2.2737901540974828
8527.34375,2.7072277861051584,7.854931762686506,5.246588134325372,-15.226025526713615,-4.5920644727896365,2.378231340937123
8537.109375,2.695431536258967,7.926577358232222,5.257439340182466,-15.472937665423515,-3.812395734000172,2.283481728209817
8546.875,2.6359243834078208,7.902801147768023,5.259105007448771,-15.214122432816177,-2.575054918850737,2.0312617145396503
8556.640625,2.6360447930897233,7.903041967131825,5.271145975638944,-15.10584831686554,-2.0094861363317325,2.097720196613194
8566.40625,2.624269958965527,7.867587536978672,5.284138753695575,-15.229011597410045,-2.700013841937745,2.0796242712941018
8576.171875,2.683902280547908,7.867804561095816,5.294989959552668,-15.535345607065748,-3.8609217157914033,2.1918036285519187
8585.9375,2.7321114789531333,7.880889624572933,5.354005038170444,-15.580391744048086,-4.643385299963156,2.2990269787428312
8595.703125,2.7325931176807394,7.881852902028145,5.402168910931123,-15.7475529285876,-4.455176919059589,2.4929777023468493
8605.46875,2.7091686181635826,7.787384855374785,5.440671340167787,-16.068009530855292,-4.205422179943026,2.7301768145479763
8615.234375,2.7456196391172747,7.681715468710741,5.514344864108501,-16.189977262894967,-4.7381253102983925,2.831635739711988
8625.0,2.7815937803926936,7.5512827988806235,5.540330420221762,-16.663907476686173,-5.8365578300490455,3.0942638609752238
8634.765625,2.8415992286441103,7.49272226681203,5.588494292982444,-17.06074405518318,-6.511123636555546,3.3798604309522853
8644.53125,2.865769981499339,7.469635201093914,5.624617197552954,-17.487434352365803,-5.524955163247566,3.7546431646492686
8654.296875,2.8182856207101894,7.446095050944189,5.638085880542817,-17.624122672240752,-3.1910608930830966,3.9213223224275984
8664.0625,2.7824580638880008,7.445868508728383,5.626758769752492,-18.11104905559309,-0.8416711861921837,4.421612503720059
8673.828125,2.722582543417151,7.457069848739064,5.5915876750484435,-18.839369468961078,0.006351308862178301,5.3789639417098325
8683.59375,2.7825737145205705,7.469909333803043,5.638323833009433,-19.770171898013615,-1.4055725859815218,6.072741021083052
8693.359375,2.8186492292805614,7.434917506180169,5.674446737579943,-20.36679916301919,-2.45796168478914,6.363896150041051
8703.125,2.8430584219749275,7.424212082045092,5.734413626064177,-20.980228042695767,-2.509598368184136,6.512168828041018
8712.890625,2.867595162925194,7.37804746870753,5.807135340138429,-21.28699416089637,-2.277050737447314,6.581137330808692
8722.65625,2.8087019561068858,7.2959753407852,5.870195610688665,-21.765356224189254,-2.6908443116472736,6.4005805019051625
8732.421875,2.785267938491065,7.249107305553558,5.907746230058868,-22.286861701909526,-2.6635665644045132,6.517519278686173
8742.1875,2.750042430078384,7.250084860156767,5.956623960219392,-22.6709280583682,-2.5888452947620326,6.5428590363545025
8751.953125,2.7263747316727587,7.16703517763123,5.970806500609101,-22.669785754236674,-2.1648254751851166,6.657089449507347
8761.71875,2.6781631537428656,7.165850117009543,5.911553469524713,-22.959171386131068,-1.992743171944735,6.926827566755497
8771.484375,2.689937987867061,7.201304547162695,5.89856069146808,-23.327209295400863,-2.1208081534419008,7.017733027170044
8781.25,2.7371862883417397,7.200563052873955,5.8614859770311085,-23.786040720097827,-2.608557108451785,7.252961041716524
8791.015625,2.8208641940481147,7.2012521976200405,5.895943214335313,-24.583288105003923,-3.726373084764848,7.466731390461208
8800.78125,2.8813465219778056,7.167454948717516,5.991795054923442,-25.180810465377146,-4.9049598869024,7.668376982654829
8810.546875,2.881741064368837,7.001577366832912,6.031249294026568,-25.48782066031968,-4.985892916196458,7.712937811229935
8820.3125,2.9532948045286425,6.906589609057285,6.043766167149969,-25.979741773242804,-5.272714683352932,7.7137550354438345
8830.078125,3.0012822197673934,6.823993010963358,6.0806029291203245,-26.42600957886529,-4.745136210064025,7.668065941296063
8839.84375,3.013789030081664,6.8132923458776125,6.140807770071176,-26.827537964686552,-3.4354039369562828,7.484481778846861
8849.609375,2.9783345999285116,6.75428824747607,6.1667933261844405,-26.94850131204633,-2.0876877836557446,7.686379172000503
8859.375,2.954426082159081,6.670756926222923,6.156893930193808,-27.47200995799511,-1.2480244657677757,7.603001125931723
8869.140625,2.9900294762901294,6.587201809723116,6.1458047718700985,-27.886424229696303,-1.6430602239797183,7.668107391630484
8878.90625,3.0496689364465084,6.551718825273969,6.157369835127037,-28.10023739459961,-0.3438707668078895,7.808697127279732
8888.671875,3.109414529136792,6.587876677321201,6.179548151774456,-27.900647378467283,2.5709464028376505,7.783071530673911
8898.4375,2.9541781242212792,6.705975296061607,6.132098136413621,-27.79110622993395,6.771310941514987,7.976233271017599
8908.203125,2.8346417278720546,6.8597596462203,6.083220406253092,-27.804255537114745,8.684131200805158,8.198581569079009
8917.96875,2.751081852322915,6.87121132369345,6.060566184672445,-28.291512920425802,5.786514710502057,8.665771754499811
8927.734375,2.8229944420037585,6.788846026864661,6.1089680098997405,-29.287148287944603,0.3455419770513667,9.025371051812655
8937.5,2.942983922784596,6.778824988426336,6.2031541832215655,-29.65257541672586,-3.632666069167255,9.377354561081118
8947.265625,3.0628696505561948,6.6852631106362,6.286965055619526,-30.020419140634203,-4.731560765266108,9.487678557641313
8957.03125,3.1228727192829453,6.638602581423032,6.334890975913591,-29.82337962317513,-3.636077625905462,9.20700309370967
8966.796875,3.111338704522553,6.603629789997487,6.371965690350564,-29.67221578657577,-2.2432381183334247,8.950596592230973
8976.5625,3.0638662413567346,6.520589625570612,6.386624135673503,-29.53750591020997,-1.5877445553614644,8.586073083538873
8986.328125,3.064232229451772,6.4975120779511615,6.423222945177243,-29.568908543454604,-2.152537091154484,8.520367791357868
8996.09375,3.111846518021488,6.473693036042975,6.422747040244013,-29.877652552737164,-2.7677193152185766,8.391547185930374
9005.859375,3.2902642235656883,6.461480828083759,6.407374737521229,-30.138276989182426,-2.6286571991495533,8.462846815808959
9015.625,3.350484316409581,6.534301966152494,6.4770030695294825,-30.294874590854008,-0.6283943630858871,8.175876810064834
9025.390625,3.3149989524357673,6.629997904871535,6.499895243576746,-30.251306105323682,2.9403606615609914,7.920888314672598
9035.15625,3.160976162437936,6.702904705828253,6.5738067199840735,-30.036764173672875,4.8995423410281065,7.8531752537739985
9044.921875,2.9940972307034595,6.726289699502157,6.552580213203116,-30.49789284520617,4.393811459587453,7.858678584687477
9054.6875,2.9945812489557326,6.7153529741019415,6.6009820384304145,-31.260031492576946,0.6495429306813431,8.508764654681464
9064.453125,3.1378914762444885,6.716259142965168,6.646290481591711,-32.26685997937743,-3.4561169573659134,9.286331039967044
9074.21875,3.2459809541698963,6.694342860720744,6.740952559846767,-32.84907672672168,-5.824907622087446,9.481258918916863
9083.984375,3.3420523990826387,6.648390512450991,6.824287527311497,-32.63124838172268,-4.958726163964041,9.742187192836287
9093.75,3.33016429385054,6.576995254367746,6.825953194577802,-32.21430866752389,-2.6190880251960187,9.929625176896169
9103.515625,3.3298244805268298,6.46917277057747,6.79197186220683,-31.84605184817328,-1.2848504958093183,9.860610724563287
9113.28125,3.294870725298613,6.315931926787703,6.868024910813697,-31.81480548457028,-2.2394013835837967,9.910689052580574
9123.046875,3.2832210599056517,6.256918310287492,6.893534561993729,-32.19975754033072,-2.337853448622946,9.847458880072221
9132.8125,3.3072904392763074,6.138390402362139,6.91952011810699,-32.30393806515125,-1.8969384480316391,10.190359511008506
9142.578125,3.295388056896212,6.138395161411473,6.9197580705736055,-31.900860875256424,-0.21372036794441507,10.528824080814912
9152.34375,3.354904727846023,6.114571360453952,6.91904421317376,-31.90150887234562,0.7253275825601012,10.46402437189528
9162.109375,3.330986691977928,6.078640050622523,6.908193007316665,-32.101318461471394,1.2088790905498412,10.467692669157113
9171.875,3.366334989597177,6.0660033125276875,6.871594197812924,-32.22823449517965,1.6422040173259602,10.07432142746242
9181.640625,3.3548999687966905,6.13837136616481,6.9185683082405305,-32.13964750843744,2.2972318322623293,9.709346004834797
9191.40625,3.426658835450308,6.222365289948233,6.951597830745043,-31.832255538272214,2.770093132683217,9.70296269852803
9201.171875,3.450824829256204,6.223078229940978,6.9872448303823225,-31.65245858766773,2.469642135461314,9.235309565279127
9210.9375,3.41609999576846,6.129819039155967,7.086190053036453,-30.969832418856715,2.545627544327186,8.320370720016912
9220.703125,3.3218680094295685,6.0127836379067565,7.1868009429568875,-30.282377186182426,3.785456635024641,7.888338261081855
9230.46875,3.2384499592843263,5.9173761090448425,7.178329261765947,-29.887171286271677,4.9438883770674025,7.43967383247937
9240.234375,3.1201819069201053,5.7522685757449725,7.256285930105735,-28.890975065851347,6.04713469802538,7.13615982531963
9250.0,3.0603373202699147,5.608769878635068,7.224208217467684,-28.630263043276674,6.237056893594676,7.073618808382457
9259.765625,3.0132356042484663,5.478852160877885,7.275941377227594,-28.318861604632488,5.06948850894125,7.468182349971169
9269.53125,3.0365801460030464,5.370779339625139,7.2294431717332195,-28.20610865885081,4.715540189151088,7.982523815149943
9279.296875,3.1564444580526496,5.3843174875338695,7.311112471931644,-28.586979320112683,3.3839354695954382,8.327433092498987
9289.0625,3.2283142162895038,5.516152242102816,7.355231152759866,-28.709616752424388,2.365043021056937,8.361921990459527
9298.828125,3.3241043899191176,5.67201830364776,7.4104389919117954,-28.77284775292921,1.8301728289061132,8.187938004542893
9308.59375,3.2649584661136766,5.6489645512749735,7.448227563748612,-28.884364433920602,2.1383846547562446,7.79722301839389
9318.359375,3.2179581235768007,5.614487675725028,7.510098071965772,-28.687096499829398,3.6256411730672617,7.539389217675331
9328.125,3.1468013053326915,5.531697848760621,7.5372733904121105,-28.350774315514702,3.9873444595737584,7.351469294033746
9337.890625,3.1233791853402013,5.425329799251832,7.576013772115389,-28.382696422462782,2.9521760415579608,7.233816631508629
9347.65625,3.112449598513984,5.379661101789873,7.6735312799698265,-28.505186649742413,1.1973320351762462,7.283026032676351
9357.421875,3.2084077723188233,5.297767925590027,7.745539136644234,-28.686163378256502,0.4942422006405421,7.63270137496536
9367.1875,3.2559111693053016,5.2261080528963175,7.733974073387293,-28.56063383590713,0.090840331844096,7.887423480770918
9376.953125,3.3275853191470084,5.131361114484493,7.758531914700866,-28.557979980509227,1.3934424172603497,8.152809020561358
9386.71875,3.33998837645204,5.037119610046939,7.808361454727852,-28.432162734081377,2.619148670695146,8.436301534214609
9396.484375,3.173371679803363,4.953886216749583,7.813358456526773,-28.5389476648611,6.111466110852642,8.518761569232495
9406.25,3.0068730133119215,4.882793645671462,7.830158474049249,-28.33310126673571,9.189219297571947,9.11877417193335
9416.015625,2.8390545993688923,4.785252055880641,7.714983746413082,-28.895562422330176,9.456175787537164,9.751982209719204
9425.78125,2.9333032423804464,4.818987437141846,7.616038523758952,-29.68338580775859,6.468473195567349,10.908152506231929
9435.546875,3.1962179261576726,4.928150138029632,7.717030711005411,-31.179866127872625,0.7000532856745358,11.913464076688767
9445.3125,3.3870077551862456,4.976396462753443,7.7483945662436176,-32.37515772592664,-4.257213047609956,12.292067530318699
9455.078125,3.506765934701944,4.918293774165793,7.819450613051562,-32.60836976353271,-5.076574123726863,12.030049011833075
9464.84375,3.4946560463033713,4.7512168545115046,7.7989379636704514,-32.41499843464452,-3.2800190341493365,11.38255469081507
9474.609375,3.4475567098065887,4.609399133898892,7.850909075896976,-32.06560892814712,-0.5868961806143117,10.964087969300143
9484.375,3.3641505572846766,4.4544915907598295,7.843627157039112,-31.762611223220066,0.3827015399504894,10.518278139177381
9494.140625,3.364533202052377,4.348114023152373,7.8818916338091585,-31.660493375045252,1.0516844418984563,9.969109843669246
9503.90625,3.4354848938026743,4.25192216855773,7.8342036659817085,-31.61972864002512,0.9997533324063188,9.433746297258368
9513.671875,3.4231199088923008,4.155763627308411,7.788181365420566,-31.14341985731208,2.476469177793857,9.40897506817775
9523.4375,3.482624682218781,4.191439840628038,7.786277745687642,-30.729165650187102,5.9723612817470135,9.327862344857056
9533.203125,3.364061081423435,4.299550734275441,7.834679570914939,-30.57764509454073,7.882397410717063,9.107127748079515
9542.96875,3.2222757280800765,4.504075265683963,7.941858522293393,-30.12189963378657,8.460999784901174,8.563303339252451
9552.734375,3.139416894900352,4.624071885038799,7.989308537654231,-30.046332878412226,5.7823063384630755,8.433583795980361
9562.5,3.235485960288428,4.5900195396244765,8.072405552652345,-29.82732711412753,2.2957224090157022,8.812253998469822
9572.265625,3.390724744728607,4.4600209180286425,8.120093520479795,-29.793191441052517,-2.367734865072231,9.151263273688466
9582.03125,3.5339431166314554,4.31788623326291,8.156216425050305,-29.329693154721518,-4.506439176992872,9.382721422544787
9591.796875,3.6416880221838213,4.211947472939071,8.216421266001158,-28.667665723818804,-4.5614682772262425,9.482466818735784
9601.5625,3.606611477749036,4.0703658126409294,8.280195393951239,-27.898772592478036,-3.911395730473647,9.507829145739906
9611.328125,3.582823369661507,3.987075310751587,8.282336966150776,-27.485391335596123,-2.186158211512649,9.339421398113554
9621.09375,3.547612138396824,3.91665284822222,8.332642411110994,-27.175946416307372,-0.4739485695169339,9.53833300415978
9630.859375,3.5592689423637838,3.93996645615614,8.307846617330808,-27.111119189457842,-0.2507003312794925,9.871939624546963
9640.625,3.7021989044095056,4.035350189771393,8.315128536188674,-27.416273421203947,-0.40806737337554383,10.102096772764671
9650.390625,3.810028526773781,4.108152291642798,8.383805058330465,-27.754488932007714,-2.0402811968482064,10.100684047500325
9660.15625,3.8578717370839684,4.144314902739366,8.406221327444499,-27.88205318377604,0.866938755607367,9.64249099979856
9669.921875,3.810746225815859,4.133397213536479,8.455574962538254,-27.376867431286826,2.4986918314067834,9.430858716052859
9679.6875,3.703407760277855,4.013958377698567,8.436014123023607,-26.90090910357688,3.4268939678285117,9.371041986662876
9689.453125,3.5493097715667785,3.8605243050383193,8.502405728106453,-26.653129947211532,2.1469262888365948,9.552493364935202
9699.21875,3.5136216606238206,3.765338559342879,8.505023205239219,-26.417094372594587,-0.4137896018980904,10.096865584508334
9708.984375,3.6332641895069497,3.6831950456805664,8.564514188790227,-26.521074227038874,-2.5098684786512058,10.459833253069505
9718.75,3.741360806006356,3.625578754869855,8.659890124445129,-26.63248139774713,-1.9822821476500416,10.080069295233198
9728.515625,3.8131577450546312,3.5191726329664044,8.696726886415483,-26.482241176169364,1.7275571634095517,9.731301291595884
9738.28125,3.8487682777596777,3.3999175079003083,8.68635158549162,-26.79724536237957,5.569638691580403,8.976462993403493
9748.046875,3.8353124671381904,3.3372916009430487,8.531246713819097,-27.06406107126939,9.821476596638618,8.428635378826929
9757.8125,3.858765520951342,3.2889596133312557,8.495599714181818,-27.63637811391556,11.816928131676129,8.076254711442045
9767.578125,3.727482844773916,3.264489499071641,8.462570191677306,-28.022982993386847,13.846798883835467,7.847742167849545
9777.34375,3.513487919869994,3.2293567921209405,8.491649129856567,-28.700763364031488,13.494085919812912,7.709981813607598
9787.109375,3.239636510692552,3.1102254023374836,8.4874605930647,-29.252857701714262,12.722467435386472,7.842592626422366
9796.875,3.1195599335751387,2.9534055814359923,8.38456478608532,-29.491106369855327,11.600158010069098,8.614190070578593
9806.640625,3.0116265582016246,2.797062640212774,8.305512963019664,-30.19090642200871,11.318597576549854,9.349019597745848
9816.40625,3.1057762072532733,2.723457176411308,8.196668344374899,-30.782795009846076,8.814455778956994,10.114042443524854
9826.171875,3.2357367564544464,2.7333782748136546,8.097485169254158,-31.674591132452434,3.871925779772429,10.096613119092297
9835.9375,3.4033072124596724,2.8661382344431554,8.187864103110138,-31.6803805117173,-0.9264038738645712,9.517675192605516
9845.703125,3.606367791488045,2.879402249642756,8.255826767852083,-31.149162477218443,-1.0218915574266785,8.834713077541993
9855.46875,3.7144548898887857,2.8693859702537634,8.350250893640522,-29.75538491998749,1.633728374994846,8.320078331766487
9865.234375,3.619847397356193,2.8230281280457192,8.413311164190757,-28.47146226591296,5.491955835066196,7.580906383338933
9875.0,3.5495144106880683,2.8371240594713734,8.522869640235367,-27.905690082736392,7.0764249238359564,7.278801103763403
9884.765625,3.4676426502102182,2.8400472051823415,8.669026925783717,-27.253186544557717,7.090085227581674,6.426157227548801
9894.53125,3.4327878889419075,2.7941472064552437,8.754979370381214,-26.676456143746385,8.513632254740362,5.682594695308219
9904.296875,3.4095946906898886,2.7477608099512065,8.816611926131758,-25.51165933451065,11.434822505251244,5.3290703921326905
9914.0625,3.410569865768433,2.6901873505844858,8.914129433986195,-25.036192513277392,13.286568940570044,5.220103015074232
9923.828125,3.3152327765704315,2.6780846007599117,8.904230037995564,-24.57612806629753,14.511663483011267,5.108177228817904
9933.59375,3.3989059232274745,2.7025737512168537,8.938211370366538,-24.90967369393073,11.00476138641165,5.573752820608534
9943.359375,3.448186911146484,2.7773262032453503,9.104405400362769,-25.890673590634346,6.957089622543721,5.859620183299223
9953.125,3.697645784302224,2.8238629971758766,9.050292715936704,-26.36292949850275,6.69041862945717,6.289678896843008
9962.890625,3.889524059517244,2.85047669046306,9.190501189819672,-27.500104836826104,7.133647516351466,6.330792258973421
9972.65625,3.9026281591916905,2.8647801279071916,9.310434966788144,-27.953070639537877,9.706144646096252,5.615303455897419
9982.421875,3.914417270463883,2.828834540927766,9.298869903531203,-27.790056732443514,11.84734187675852,5.006624987778432
9992.1875,3.8195903742894814,2.6748950342932503,9.339989809900636,-27.31799198840004,13.836607578250327,4.557449891741177
10001.953125,3.665733204942209,2.52194260036061,9.430463351363825,-26.505661474509488,15.643399838223651,4.314713425300249
10011.71875,3.4636668371897112,2.3559051029508518,9.461921814209235,-25.706379711640743,16.55966834363999,4.304380872820609
10021.484375,3.2852824449908367,2.2015172709340542,9.480625451464636,-25.073523550092908,17.054081591093706,4.561557365806031
10031.25,3.0237136834365237,1.987903557349239,9.514225486509588,-24.56693229314217,17.027113271035127,4.4904755282122935
10041.015625,2.8201857428285426,1.9022762475618469,9.39952666380665,-24.25584696774498,15.906210733380473,4.8534277451027945
10050.78125,2.8913711153686448,1.8422660402610984,9.375206774959695,-23.886519217855266,13.420073363848937,4.891506346679439
10060.546875,3.0802462871101213,1.827159240886908,9.215104901488251,-24.197365736185517,7.978961810815039,4.552434836483194
10070.3125,3.378150418985556,1.9110627427330176,9.243613327127076,-24.446227246323428,5.467703187986096,4.2627480809549585
10080.078125,3.735804902600608,2.0073240909155023,9.294775974346548,-24.913121014343986,5.410339065749539,3.691741763142796
10089.84375,3.6764157799066974,1.9956887026705377,9.308244657336408,-24.062382741657718,8.979577696868958,2.6779441278484977
10099.609375,3.5210898991299424,1.958846464926552,9.2518470558514,-22.682089617957192,15.223482073457756,2.352145045173359
10109.375,3.115818747420509,1.8983041615076852,9.200922361098543,-22.159814988660244,20.55328500642567,2.312121426058504
10119.140625,2.842330946813438,1.7679952269602093,9.233094681343808,-22.291517422603103,21.73324869405188,2.9773891770463057
10128.90625,2.4713386827341344,1.6212487940396976,9.038630178175367,-22.71894297154803,21.027210193463645,3.2786467345134063
10138.671875,2.3161546273612768,1.4775473499606488,8.996415117080069,-23.60201744099357,23.094272149327804,4.1333827261617895
10148.4375,2.1119089877112174,1.366675118279577,8.809946390169342,-24.19202231937863,23.44246359522774,5.0867765171715975
10158.203125,2.301822635621152,1.5798357474327795,8.75369213354374,-25.541648172082265,16.838568318123215,5.404744667254136
10167.96875,2.75501695540335,1.8790815298543195,8.835028873668339,-26.44424406363407,4.539789910173757,4.307338448276749
10177.734375,3.2930204585223617,1.9431837741875813,9.063950614140984,-25.866129419602302,-0.19031587756307788,3.7022002380791648
10187.5,3.593616434843627,1.8181852506396328,9.361643484362627,-24.12334066761839,2.448569480720337,2.731267596347446
10197.265625,3.4525916119863367,1.8337546525441013,9.544875484347946,-20.84915748528833,12.269946061255084,1.1718763750876593
10207.03125,3.2166480375687376,1.5523436941850954,9.760041852111911,-17.422525273896014,25.31759101053571,1.0218769147803872
10216.796875,2.9560663487163006,1.2216565069564114,9.89234915734438,-14.222738544920947,33.323644180399405,1.2465144548691829
10226.5625,2.6836503376230145,1.1530149609603142,10.031700428968094,-12.085943647746385,38.34107376732762,1.2442209286667816
10236.328125,2.373454040025784,1.2111937943372817,9.964451621625994,-10.471815103584506,41.520865469450115,1.2427786500046007
10246.09375,2.2428747857424383,1.283368619103925,10.00176428852958,-9.178753132574254,42.63186318543704,1.417538395149566
10255.859375,1.9816434579871696,1.1894773921648158,10.069107703478887,-8.832319851294116,35.56475671195683,0.7034491519104991
10265.625,1.9704563951244856,1.2266270759632572,10.14087760768668,-8.526767189846595,29.128947467973,0.5131349738340987
10275.390625,2.209710519070084,1.2170400857592156,10.256766192722694,-9.283139003624184,18.969492436269213,0.20262538700524524
10285.15625,2.269229569544561,1.1813162819462657,10.256290287789463,-9.223293425830418,12.656777337386329,0.038067101816055215
10294.921875,2.4358700614399003,1.1455496466893242,10.253672810656694,-8.775926280500327,6.6330499959491585,0.19369016672386632
10304.6875,2.602260215872771,1.1569013841264948,10.226021587277122,-8.171955821881918,2.4148604188178733,0.6368543990489952
10314.453125,2.8394626161767076,1.1670204704486544,10.136737808147009,-7.536660920082407,-1.6144965655104075,1.1379049172014086
10324.21875,3.0413190983860625,1.1778762920102213,10.084290790987255,-7.180598030729668,-3.910718168509952,1.3867764812224117
10333.984375,3.1353388196571443,1.1516300202666696,9.962453394285864,-6.518883802022841,-2.399892890353504,1.4552016578236515
10343.75,2.9801357280869567,1.1031285990310575,9.918334713457641,-5.597584747190262,2.635659732813178,1.3483661725957599
10353.515625,2.8353996208127104,1.004132574958754,9.730438271747225,-4.737203675430943,6.3086078337528475,1.2988484446074435
10363.28125,2.66733324893188,0.9418093550066172,9.59046775033087,-4.202427515071529,9.12979138276017,0.9716989155989892
10373.046875,2.5338950961035542,0.8535044779213941,9.341890562736367,-4.081667970109958,10.33472765058795,0.7494212826245648
10382.8125,2.4728226173876853,0.8265976157277521,9.187023643530463,-3.6338855916845687,11.437496436941952,0.9465676570621068
10392.578125,2.5189848512005817,0.8355887500202117,9.041342262915345,-3.758194529353435,11.87345453071786,0.8139060193068324
10402.34375,2.660847782781851,0.8455050893732263,8.941921135327984,-3.6666341104880686,11.466489427525401,0.746273808994918
10412.109375,2.7084620713515664,0.8216860474650378,8.941445230394754,-3.363395350355607,11.99780281431751,0.32456949941254776
10421.875,2.6960875683425285,0.7731275176374383,8.894471119967148,-2.4578240686038413,15.732921485369616,0.18223572224460616
10431.640625,2.709186908967643,0.8112309607924286,9.013928992002391,-1.044710058138438,19.2854157515829,0.06396728377346073
10441.40625,2.674799509278942,0.8376942566531222,9.146617594560878,0.8284249929411551,21.212530022862104,-0.17056757752169552
10451.171875,2.64089850736718,0.8413208242581703,9.327945974813279,3.043465888519957,22.426329285734873,-0.0346563440074118
10460.9375,2.5472328765678056,0.9039895626594208,9.485192418685337,4.798150838105834,25.406125653243883,0.18403077445728505
10470.703125,2.358107367363861,0.9662147347277232,9.620260545909977,6.5328794150802505,29.05459228099803,-0.05564035208265489
